attn_cue,left_ob,right_ob,congruent,runs.thisRepN,runs.thisTrialN,runs.thisN,runs.thisIndex,blocks.thisRepN,blocks.thisTrialN,blocks.thisN,blocks.thisIndex,trials.thisRepN,trials.thisTrialN,trials.thisN,trials.thisIndex,welcome.started,welcome.stopped,text_2.started,text_2.stopped,init_key_resp.keys,init_key_resp.rt,init_key_resp.started,init_key_resp.stopped,text_3.started,text_3.stopped,text_4.started,text_4.stopped,text_5.started,text_5.stopped,block_num,texter.started,texter.stopped,cross.started,cross.stopped,left_star.started,left_star.stopped,right_star.started,right_star.stopped,left_2.started,left_2.stopped,right_2.started,right_2.stopped,key_resp.keys,key_resp.rt,key_resp.started,key_resp.stopped,Rand Tim,text.started,text.stopped,end.started,end.stopped,text_6.started,text_6.stopped,text_7.started,text_7.stopped,participant,session,date,expName,psychopyVersion,frameRate,
,,,,,,,,,,,,,,,,88.50121001061052,None,88.50121001061052,None,space,2.5832624388858676,88.50121001061052,None,,,,,,,,,,,,,,,,,,,,,,,,,,,,,,,,,DEC026,001,2022_Dec_06_1613,2-25_cond_decay_EYE-try,2021.2.3,119.82529801643402,
left,0.75,1.0,0,0,0,0,0,0,0,0,0,0,0,0,3,,,,,,,,,91.1079968479462,None,91.1079968479462,None,91.1079968479462,None,5s,95.74087488697842,96.74196257675067,96.73449991689995,None,97.7344191018492,101.97563953977078,97.7344191018492,101.97563953977078,101.96716289455071,None,101.96716289455071,None,space,0.028427607379853725,101.96716289455071,None,4.2375,102.13310179999098,None,,,,,,,DEC026,001,2022_Dec_06_1613,2-25_cond_decay_EYE-try,2021.2.3,119.82529801643402,
left,1.0,0.75,1,0,0,0,0,0,0,0,0,0,1,1,6,,,,,,,,,,,,,,,5s,103.21622796263546,104.21742600481957,104.20912869274616,None,105.20923698786646,108.2341019618325,105.20923698786646,108.2341019618325,108.2341019618325,None,108.2341019618325,None,space,0.5251755551435053,108.2341019618325,None,3.0248,108.88309393962845,None,,,,,,,DEC026,001,2022_Dec_06_1613,2-25_cond_decay_EYE-try,2021.2.3,119.82529801643402,
left,0.75,1.0,0,0,0,0,0,0,0,0,0,0,2,2,8,,,,,,,,,,,,,,,5s,109.98326282482594,110.9844595938921,110.9760350487195,None,111.97634858079255,113.29304879298434,111.97634858079255,113.29304879298434,113.28420894779265,None,113.28420894779265,None,space,0.5191734349355102,113.28420894779265,None,1.3119,113.93351064575836,None,,,,,,,DEC026,001,2022_Dec_06_1613,2-25_cond_decay_EYE-try,2021.2.3,119.82529801643402,
right,0.75,1.0,1,0,0,0,0,0,0,0,0,0,3,3,4,,,,,,,,,,,,,,,5s,115.02447443269193,116.0265795616433,116.01719674281776,None,117.01719436561689,118.66717969859019,117.01719436561689,118.66717969859019,118.65972220664844,None,118.65972220664844,None,space,0.7021280289627612,118.65972220664844,None,1.645,119.49110194388777,None,,,,,,,DEC026,001,2022_Dec_06_1613,2-25_cond_decay_EYE-try,2021.2.3,119.82529801643402,
left,0.75,1.0,0,0,0,0,0,0,0,0,0,0,4,4,9,,,,,,,,,,,,,,,5s,120.58285747282207,121.58432254195213,121.57602195860818,None,122.5765006877482,125.99254179792479,122.5765006877482,125.99254179792479,125.99254179792479,None,125.99254179792479,None,space,0.4363014092668891,125.99254179792479,None,3.4125,126.55838653165847,None,,,,,,,DEC026,001,2022_Dec_06_1613,2-25_cond_decay_EYE-try,2021.2.3,119.82529801643402,
right,1.0,0.75,0,0,0,0,0,0,0,0,0,0,5,5,2,,,,,,,,,,,,,,,5s,127.65015337383375,128.65073855780065,128.64325207285583,None,129.6427518548444,134.2012910968624,129.6427518548444,134.2012910968624,134.1925627887249,None,134.1925627887249,None,space,0.44400547398254275,134.1925627887249,None,4.5534,134.76694150362164,None,,,,,,,DEC026,001,2022_Dec_06_1613,2-25_cond_decay_EYE-try,2021.2.3,119.82529801643402,
right,1.0,0.75,0,0,0,0,0,0,0,0,0,0,6,6,7,,,,,,,,,,,,,,,5s,135.85790805891156,136.85957666067407,136.85120809590444,None,137.8511280347593,142.517770644743,137.8511280347593,142.517770644743,142.509106435813,None,142.509106435813,None,space,0.4862809432670474,142.509106435813,None,4.6641,143.12506381282583,None,,,,,,,DEC026,001,2022_Dec_06_1613,2-25_cond_decay_EYE-try,2021.2.3,119.82529801643402,
right,1.0,0.75,0,0,0,0,0,0,0,0,0,0,7,7,1,,,,,,,,,,,,,,,5s,144.21629252564162,145.2177244545892,145.20932409865782,None,146.20942701771855,149.6345232645981,146.20942701771855,149.6345232645981,149.62604929180816,None,149.62604929180816,None,space,0.4114083470776677,149.62604929180816,None,3.4182,150.1665252028033,None,,,,,,,DEC026,001,2022_Dec_06_1613,2-25_cond_decay_EYE-try,2021.2.3,119.82529801643402,
right,1.0,0.75,0,0,0,0,0,0,0,0,0,0,8,8,5,,,,,,,,,,,,,,,5s,151.25011731358245,152.25102108856663,152.2428311756812,None,153.24311631172895,154.7761655836366,153.24311631172895,154.7761655836366,154.7761655836366,None,154.7761655836366,None,space,0.5863575101830065,154.7761655836366,None,1.5327,155.49226479791105,None,,,,,,,DEC026,001,2022_Dec_06_1613,2-25_cond_decay_EYE-try,2021.2.3,119.82529801643402,
left,0.75,1.0,0,0,0,0,0,0,0,0,0,0,9,9,0,,,,,,,,,,,,,,,5s,156.59190305694938,157.59284748369828,157.58435266790912,None,158.58474723994732,158.85974887060001,158.58474723994732,158.85974887060001,158.852041201666,None,158.852041201666,None,space,0.5022429702803493,158.852041201666,None,0.2732,159.48331827297807,None,,,,,,,DEC026,001,2022_Dec_06_1613,2-25_cond_decay_EYE-try,2021.2.3,119.82529801643402,
left,1.0,0.75,1,0,0,0,0,0,0,0,0,1,0,10,6,,,,,,,,,,,,,,,5s,160.5757018160075,161.57700602384284,161.56797774555162,None,162.56784518575296,167.3766130656004,162.56784518575296,167.3766130656004,167.36794624384493,None,167.36794624384493,None,space,0.39420669618994,167.36794624384493,None,4.8029,167.89250385388732,None,,,,,,,DEC026,001,2022_Dec_06_1613,2-25_cond_decay_EYE-try,2021.2.3,119.82529801643402,
left,0.75,1.0,0,0,0,0,0,0,0,0,0,1,1,11,8,,,,,,,,,,,,,,,5s,168.98350759083405,169.9852811358869,169.97652409691364,None,170.9761407757178,172.23511934978887,170.9761407757178,172.23511934978887,172.22652908600867,None,172.22652908600867,None,space,0.5092766829766333,172.22652908600867,None,1.2552,172.86745776468888,None,,,,,,,DEC026,001,2022_Dec_06_1613,2-25_cond_decay_EYE-try,2021.2.3,119.82529801643402,
right,1.0,0.75,0,0,0,0,0,0,0,0,0,1,2,12,7,,,,,,,,,,,,,,,5s,173.95857655676082,174.96029876964167,174.9519233587198,None,175.95162342768162,180.78527875896543,175.95162342768162,180.78527875896543,180.78527875896543,None,180.78527875896543,None,space,0.3425624491646886,180.78527875896543,None,4.8308,181.25208111992106,None,,,,,,,DEC026,001,2022_Dec_06_1613,2-25_cond_decay_EYE-try,2021.2.3,119.82529801643402,
right,1.0,0.75,0,0,0,0,0,0,0,0,0,1,3,13,1,,,,,,,,,,,,,,,5s,182.35064383083954,183.35160340787843,183.33568123588338,None,184.33550428878516,184.87719936063513,184.33550428878516,184.87719936063513,184.87719936063513,None,184.87719936063513,None,None,,184.87719936063513,None,0.5361,186.00892814900726,None,,,,,,,DEC026,001,2022_Dec_06_1613,2-25_cond_decay_EYE-try,2021.2.3,119.82529801643402,
right,1.0,0.75,0,0,0,0,0,0,0,0,0,1,4,14,5,,,,,,,,,,,,,,,5s,187.0919872946106,188.09357789484784,188.08526724763215,None,189.08514834893867,192.35175261786208,189.08514834893867,192.35175261786208,192.34381598979235,None,192.34381598979235,None,space,0.33348179375752807,192.34381598979235,None,3.2637,192.80926958378404,None,,,,,,,DEC026,001,2022_Dec_06_1613,2-25_cond_decay_EYE-try,2021.2.3,119.82529801643402,
left,0.75,1.0,0,0,0,0,0,0,0,0,0,1,5,15,3,,,,,,,,,,,,,,,5s,193.90071740280837,194.9013989828527,194.89322725171223,None,195.89323845366016,200.743840649724,195.89323845366016,200.743840649724,200.73498806077987,None,200.73498806077987,None,space,0.35924595408141613,200.73498806077987,None,4.8434,201.21879217773676,None,,,,,,,DEC026,001,2022_Dec_06_1613,2-25_cond_decay_EYE-try,2021.2.3,119.82529801643402,
left,0.75,1.0,0,0,0,0,0,0,0,0,0,1,6,16,0,,,,,,,,,,,,,,,5s,202.3176855025813,203.31827460881323,203.3107669437304,None,204.3104186579585,207.88509885361418,204.3104186579585,207.88509885361418,207.88509885361418,None,207.88509885361418,None,space,0.3754860735498369,207.88509885361418,None,3.5741,208.38491371599957,None,,,,,,,DEC026,001,2022_Dec_06_1613,2-25_cond_decay_EYE-try,2021.2.3,119.82529801643402,
left,0.75,1.0,0,0,0,0,0,0,0,0,0,1,7,17,9,,,,,,,,,,,,,,,5s,209.4768905355595,210.47740767197683,210.46917782258242,None,211.46914139995351,213.15192656358704,211.46914139995351,213.15192656358704,213.1432261657901,None,213.1432261657901,None,space,0.43613040493801236,213.1432261657901,None,1.676,213.7095338916406,None,,,,,,,DEC026,001,2022_Dec_06_1613,2-25_cond_decay_EYE-try,2021.2.3,119.82529801643402,
right,1.0,0.75,0,0,0,0,0,0,0,0,0,1,8,18,2,,,,,,,,,,,,,,,5s,214.80209117475897,215.80215697782114,215.79422154370695,None,216.79427111661062,221.24433731893077,216.79427111661062,221.24433731893077,221.23536091390997,None,221.23536091390997,None,space,0.33606550097465515,221.23536091390997,None,4.4443,221.70087678497657,None,,,,,,,DEC026,001,2022_Dec_06_1613,2-25_cond_decay_EYE-try,2021.2.3,119.82529801643402,
right,0.75,1.0,1,0,0,0,0,0,0,0,0,1,9,19,4,,,,,,,,,,,,,,,5s,222.78544925991446,223.7856546835974,223.77730316389352,None,224.7769917929545,226.81909200875089,224.7769917929545,226.81909200875089,226.81909200875089,None,226.81909200875089,None,space,0.4747834918089211,226.81909200875089,None,2.0398,227.4186352547258,None,,,,,,,DEC026,001,2022_Dec_06_1613,2-25_cond_decay_EYE-try,2021.2.3,119.82529801643402,
,,,,0,0,0,0,0,0,0,0,,,,,,,,,,,,,,,,,,,,,,,,,,,,,,,,,,,,,,,,,,,,,DEC026,001,2022_Dec_06_1613,2-25_cond_decay_EYE-try,2021.2.3,119.82529801643402,
right,1.0,0.75,0,0,0,0,0,1,0,1,0,0,0,0,7,,,,,,,,,228.3176368298009,None,228.3176368298009,None,228.3176368298009,None,1s,229.84329229500145,230.84393077390268,230.83550777379423,None,231.8356702909805,232.01092764781788,231.8356702909805,232.01092764781788,232.00185846397653,None,232.00185846397653,None,space,0.5614241440780461,232.00185846397653,None,0.1705,232.69218062656,None,,,,,,,DEC026,001,2022_Dec_06_1613,2-25_cond_decay_EYE-try,2021.2.3,119.82529801643402,
right,1.0,0.75,0,0,0,0,0,1,0,1,0,0,1,1,6,,,,,,,,,,,,,,,1s,233.78391464566812,234.7860475196503,234.76882710587233,None,235.77748194290325,236.01111856475472,235.77748194290325,236.01111856475472,236.00229640072212,None,236.00229640072212,None,space,0.4272751291282475,236.00229640072212,None,0.2291,236.5592860407196,None,,,,,,,DEC026,001,2022_Dec_06_1613,2-25_cond_decay_EYE-try,2021.2.3,119.82529801643402,
left,0.75,1.0,0,0,0,0,0,1,0,1,0,0,2,2,9,,,,,,,,,,,,,,,1s,237.65100704459473,238.65210935659707,238.644042132888,None,239.64454714395106,239.8352838298306,239.64454714395106,239.8352838298306,239.8352838298306,None,239.8352838298306,None,space,0.36942655174061656,239.8352838298306,None,0.192,240.33404894173145,None,,,,,,,DEC026,001,2022_Dec_06_1613,2-25_cond_decay_EYE-try,2021.2.3,119.82529801643402,
left,0.75,1.0,0,0,0,0,0,1,0,1,0,0,3,3,3,,,,,,,,,,,,,,,1s,241.42584452265874,242.42788209067658,242.41857537487522,None,243.41882888274267,243.60231952555478,243.41882888274267,243.60231952555478,243.59374051680788,None,243.59374051680788,None,space,0.33564123092219234,243.59374051680788,None,0.1806,244.05997250555083,None,,,,,,,DEC026,001,2022_Dec_06_1613,2-25_cond_decay_EYE-try,2021.2.3,119.82529801643402,
left,1.0,0.75,1,0,0,0,0,1,0,1,0,0,4,4,4,,,,,,,,,,,,,,,1s,245.15134629886597,246.15193123789504,246.1437028539367,None,247.1359751536511,248.1280981656164,247.1359751536511,248.1280981656164,248.1280981656164,None,248.1280981656164,None,space,0.24373320909217,248.1280981656164,None,0.9868,248.50085683073848,None,,,,,,,DEC026,001,2022_Dec_06_1613,2-25_cond_decay_EYE-try,2021.2.3,119.82529801643402,
left,0.75,1.0,0,0,0,0,0,1,0,1,0,0,5,5,1,,,,,,,,,,,,,,,1s,249.5930234589614,250.59378529665992,250.58549328474328,None,251.58581597357988,251.93588368361816,251.58581597357988,251.93588368361816,251.93588368361816,None,251.93588368361816,None,space,0.37568934401497245,251.93588368361816,None,0.3455,252.4363451078534,None,,,,,,,DEC026,001,2022_Dec_06_1613,2-25_cond_decay_EYE-try,2021.2.3,119.82529801643402,
right,1.0,0.75,0,0,0,0,0,1,0,1,0,0,6,6,8,,,,,,,,,,,,,,,1s,253.5346624427475,254.53619884187356,254.5190741745755,None,255.51937348674983,255.73577139573172,255.51937348674983,255.73577139573172,255.73577139573172,None,255.73577139573172,None,space,0.40235219430178404,255.73577139573172,None,0.2143,256.268184102606,None,,,,,,,DEC026,001,2022_Dec_06_1613,2-25_cond_decay_EYE-try,2021.2.3,119.82529801643402,
right,1.0,0.75,0,0,0,0,0,1,0,1,0,0,7,7,0,,,,,,,,,,,,,,,1s,257.35935924761,258.36077503766865,258.3526016436517,None,259.3530106768012,259.51947451988235,259.3530106768012,259.51947451988235,259.5106533658691,None,259.5106533658691,None,space,0.4356137290596962,259.5106533658691,None,0.1602,260.076794242952,None,,,,,,,DEC026,001,2022_Dec_06_1613,2-25_cond_decay_EYE-try,2021.2.3,119.82529801643402,
right,1.0,0.75,0,0,0,0,0,1,0,1,0,0,8,8,5,,,,,,,,,,,,,,,1s,261.1606295169331,262.1607896545902,262.1526305186562,None,263.1522061917931,264.10304985474795,263.1522061917931,264.10304985474795,264.10304985474795,None,264.10304985474795,None,space,0.39173682779073715,264.10304985474795,None,0.9485,264.61970423860475,None,,,,,,,DEC026,001,2022_Dec_06_1613,2-25_cond_decay_EYE-try,2021.2.3,119.82529801643402,
right,0.75,1.0,1,0,0,0,0,1,0,1,0,0,9,9,2,,,,,,,,,,,,,,,1s,265.6850381777622,266.6863167285919,266.6778562096879,None,267.6776347835548,268.5692505436018,267.6776347835548,268.5692505436018,268.56063699396327,None,268.56063699396327,None,space,0.402742441277951,268.56063699396327,None,0.8868,269.0927024916746,None,,,,,,,DEC026,001,2022_Dec_06_1613,2-25_cond_decay_EYE-try,2021.2.3,119.82529801643402,
left,1.0,0.75,1,0,0,0,0,1,0,1,0,1,0,10,4,,,,,,,,,,,,,,,1s,270.18472264893353,271.18548505567014,271.17793441098183,None,272.1774718016386,272.4946670019999,272.1774718016386,272.4946670019999,272.4946670019999,None,272.4946670019999,None,space,0.38369637075811625,272.4946670019999,None,0.3163,273.0100046196021,None,,,,,,,DEC026,001,2022_Dec_06_1613,2-25_cond_decay_EYE-try,2021.2.3,119.82529801643402,
left,0.75,1.0,0,0,0,0,0,1,0,1,0,1,1,11,3,,,,,,,,,,,,,,,1s,274.10115318978205,275.1022836067714,275.09407480992377,None,276.09442137693986,276.719395743683,276.09442137693986,276.719395743683,276.719395743683,None,276.719395743683,None,space,0.29203781159594655,276.719395743683,None,0.6231,277.14324991358444,None,,,,,,,DEC026,001,2022_Dec_06_1613,2-25_cond_decay_EYE-try,2021.2.3,119.82529801643402,
right,1.0,0.75,0,0,0,0,0,1,0,1,0,1,2,12,8,,,,,,,,,,,,,,,1s,278.23535433690995,279.23658225964755,279.2273558136076,None,280.22750692488626,280.4362914059311,280.22750692488626,280.4362914059311,280.4362914059311,None,280.4362914059311,None,space,0.4692343692295253,280.4362914059311,None,0.2096,281.0353942238726,None,,,,,,,DEC026,001,2022_Dec_06_1613,2-25_cond_decay_EYE-try,2021.2.3,119.82529801643402,
right,1.0,0.75,0,0,0,0,0,1,0,1,0,1,3,13,5,,,,,,,,,,,,,,,1s,282.11866985587403,283.11952698091045,283.1115142288618,None,284.11159259080887,284.56138493074104,284.11159259080887,284.56138493074104,284.56138493074104,None,284.56138493074104,None,space,0.3173122233711183,284.56138493074104,None,0.4461,285.0031061479822,None,,,,,,,DEC026,001,2022_Dec_06_1613,2-25_cond_decay_EYE-try,2021.2.3,119.82529801643402,
left,0.75,1.0,0,0,0,0,0,1,0,1,0,1,4,14,1,,,,,,,,,,,,,,,1s,286.0685315299779,287.06932492600754,287.0610317075625,None,288.0616274937056,288.5032355329022,288.0616274937056,288.5032355329022,288.5032355329022,None,288.5032355329022,None,space,0.34136506682261825,288.5032355329022,None,0.4386,288.9695951859467,None,,,,,,,DEC026,001,2022_Dec_06_1613,2-25_cond_decay_EYE-try,2021.2.3,119.82529801643402,
right,1.0,0.75,0,0,0,0,0,1,0,1,0,1,5,15,6,,,,,,,,,,,,,,,1s,290.06853872397915,291.0696724206209,291.0614125318825,None,292.0612187869847,292.87752566393465,292.0612187869847,292.87752566393465,292.869771879632,None,292.869771879632,None,space,0.3027643500827253,292.869771879632,None,0.8115,293.301195602864,None,,,,,,,DEC026,001,2022_Dec_06_1613,2-25_cond_decay_EYE-try,2021.2.3,119.82529801643402,
left,0.75,1.0,0,0,0,0,0,1,0,1,0,1,6,16,9,,,,,,,,,,,,,,,1s,294.39384148363024,295.394197832793,295.38677365798503,None,296.38655567588285,296.55250062886626,296.38655567588285,296.55250062886626,296.55250062886626,None,296.55250062886626,None,space,0.4277204480022192,296.55250062886626,None,0.1639,297.1097186766565,None,,,,,,,DEC026,001,2022_Dec_06_1613,2-25_cond_decay_EYE-try,2021.2.3,119.82529801643402,
right,1.0,0.75,0,0,0,0,0,1,0,1,0,1,7,17,0,,,,,,,,,,,,,,,1s,298.2022166335955,299.20329786185175,299.1942041697912,None,300.194264234975,301.16154406173155,300.194264234975,301.16154406173155,301.15276733692735,None,301.15276733692735,None,space,0.2674966109916568,301.15276733692735,None,0.9604,301.5449968697503,None,,,,,,,DEC026,001,2022_Dec_06_1613,2-25_cond_decay_EYE-try,2021.2.3,119.82529801643402,
left,0.75,1.0,0,0,0,0,0,1,0,1,0,1,8,18,7,,,,,,,,,,,,,,,1s,302.64354768255726,303.6441980767995,303.63584152655676,None,304.6362554789521,304.91100088879466,304.6362554789521,304.91100088879466,304.91100088879466,None,304.91100088879466,None,space,0.40303813107311726,304.91100088879466,None,0.2747,305.44341595470905,None,,,,,,,DEC026,001,2022_Dec_06_1613,2-25_cond_decay_EYE-try,2021.2.3,119.82529801643402,
right,0.75,1.0,1,0,0,0,0,1,0,1,0,1,9,19,2,,,,,,,,,,,,,,,1s,306.53498961171135,307.53589020483196,307.52000313671306,None,308.51928796991706,309.1531451186165,308.51928796991706,309.1531451186165,309.1531451186165,None,309.1531451186165,None,space,0.4021879490464926,309.1531451186165,None,0.6295,309.6851766705513,None,,,,,,,DEC026,001,2022_Dec_06_1613,2-25_cond_decay_EYE-try,2021.2.3,119.82529801643402,
,,,,0,0,0,0,1,0,1,0,,,,,,,,,,,,,,,,,,,,,,,,,,,,,,,,,,,,,,,,,,,,,DEC026,001,2022_Dec_06_1613,2-25_cond_decay_EYE-try,2021.2.3,119.82529801643402,
right,1.0,0.75,0,0,0,0,0,2,0,2,0,0,0,0,7,,,,,,,,,310.5767740206793,None,310.5767740206793,None,310.5767740206793,None,10s,312.7941751056351,313.79438168089837,313.77860048087314,None,314.7782732360065,318.1530473777093,314.7782732360065,318.1530473777093,318.1530473777093,None,318.1530473777093,None,space,0.40248844819143414,318.1530473777093,None,3.3684,318.68536723498255,None,,,,,,,DEC026,001,2022_Dec_06_1613,2-25_cond_decay_EYE-try,2021.2.3,119.82529801643402,
left,0.75,1.0,0,0,0,0,0,2,0,2,0,0,1,1,8,,,,,,,,,,,,,,,10s,319.7848523929715,320.78681565774605,320.7698010997847,None,321.7697281986475,326.011050272733,321.7697281986475,326.011050272733,326.011050272733,None,326.011050272733,None,space,0.4176721111871302,326.011050272733,None,4.2358,326.55378840491176,None,,,,,,,DEC026,001,2022_Dec_06_1613,2-25_cond_decay_EYE-try,2021.2.3,119.82529801643402,
right,1.0,0.75,0,0,0,0,0,2,0,2,0,0,2,2,3,,,,,,,,,,,,,,,10s,327.65268490370363,328.65303760860115,328.6449746526778,None,329.6450786376372,335.20352646987885,329.6450786376372,335.20352646987885,335.20352646987885,None,335.20352646987885,None,space,0.36917757894843817,335.20352646987885,None,5.5585,335.7019259505905,None,,,,,,,DEC026,001,2022_Dec_06_1613,2-25_cond_decay_EYE-try,2021.2.3,119.82529801643402,
left,0.75,1.0,0,0,0,0,0,2,0,2,0,0,3,3,9,,,,,,,,,,,,,,,10s,336.7943311748095,337.7948552267626,337.7863902747631,None,338.78715548478067,344.5784846255556,338.78715548478067,344.5784846255556,344.5696219629608,None,344.5696219629608,None,space,0.41116855572909117,344.5696219629608,None,5.7874,345.1100710770115,None,,,,,,,DEC026,001,2022_Dec_06_1613,2-25_cond_decay_EYE-try,2021.2.3,119.82529801643402,
right,1.0,0.75,0,0,0,0,0,2,0,2,0,0,4,4,1,,,,,,,,,,,,,,,10s,346.202777819708,347.2035890207626,347.1955984006636,None,348.1955070309341,348.67017969768494,348.1955070309341,348.67017969768494,348.67017969768494,None,348.67017969768494,None,space,0.5587452631443739,348.67017969768494,None,0.4744,349.3532059355639,None,,,,,,,DEC026,001,2022_Dec_06_1613,2-25_cond_decay_EYE-try,2021.2.3,119.82529801643402,
left,1.0,0.75,1,0,0,0,0,2,0,2,0,0,5,5,4,,,,,,,,,,,,,,,10s,350.45294765289873,351.4537121877074,351.4452893109992,None,352.445162396878,356.3117576017976,352.445162396878,356.3117576017976,356.30312530184165,None,356.30312530184165,None,space,0.4191903849132359,356.30312530184165,None,3.8622,356.845605392009,None,,,,,,,DEC026,001,2022_Dec_06_1613,2-25_cond_decay_EYE-try,2021.2.3,119.82529801643402,
right,0.75,1.0,1,0,0,0,0,2,0,2,0,0,6,6,2,,,,,,,,,,,,,,,10s,357.94449700182304,358.9456909298897,358.9365346757695,None,359.9365363777615,361.8791105397977,359.9365363777615,361.8791105397977,361.8791105397977,None,361.8791105397977,None,space,0.4855192587710917,361.8791105397977,None,1.9388,362.49454484600574,None,,,,,,,DEC026,001,2022_Dec_06_1613,2-25_cond_decay_EYE-try,2021.2.3,119.82529801643402,
right,1.0,0.75,0,0,0,0,0,2,0,2,0,0,7,7,6,,,,,,,,,,,,,,,10s,363.57888577179983,364.5790719669312,364.5705742058344,None,365.57023373199627,369.47846613964066,365.57023373199627,369.47846613964066,369.47846613964066,None,369.47846613964066,None,space,0.45316712092608213,369.47846613964066,None,3.9061,370.0610952619463,None,,,,,,,DEC026,001,2022_Dec_06_1613,2-25_cond_decay_EYE-try,2021.2.3,119.82529801643402,
left,0.75,1.0,0,0,0,0,0,2,0,2,0,0,8,8,0,,,,,,,,,,,,,,,10s,371.15286555793136,372.15337952785194,372.1450261059217,None,373.14517681859434,377.75374725367874,373.14517681859434,377.75374725367874,377.7451296048239,None,377.7451296048239,None,space,0.41944983415305614,377.7451296048239,None,4.6064,378.2946273018606,None,,,,,,,DEC026,001,2022_Dec_06_1613,2-25_cond_decay_EYE-try,2021.2.3,119.82529801643402,
left,0.75,1.0,0,0,0,0,0,2,0,2,0,0,9,9,5,,,,,,,,,,,,,,,10s,379.38602516800165,380.38707294268534,380.37945229467005,None,381.37929307855666,384.32912981370464,381.37929307855666,384.32912981370464,384.32054851576686,None,384.32054851576686,None,space,0.402889896184206,384.32054851576686,None,2.943,384.85328872781247,None,,,,,,,DEC026,001,2022_Dec_06_1613,2-25_cond_decay_EYE-try,2021.2.3,119.82529801643402,
left,0.75,1.0,0,0,0,0,0,2,0,2,0,1,0,10,8,,,,,,,,,,,,,,,10s,385.9448043596931,386.9460725495592,386.9375175819732,None,387.93698897073045,393.8289669789374,387.93698897073045,393.8289669789374,393.8289669789374,None,393.8289669789374,None,space,0.4610839798115194,393.8289669789374,None,5.8893,394.41914907377213,None,,,,,,,DEC026,001,2022_Dec_06_1613,2-25_cond_decay_EYE-try,2021.2.3,119.82529801643402,
left,0.75,1.0,0,0,0,0,0,2,0,2,0,1,1,11,0,,,,,,,,,,,,,,,10s,395.51106996880844,396.5126801310107,396.50370606360957,None,397.5039309747517,399.8459717077203,397.5039309747517,399.8459717077203,399.83706330275163,None,399.83706330275163,None,space,0.4865463492460549,399.83706330275163,None,2.3341,400.4525557565503,None,,,,,,,DEC026,001,2022_Dec_06_1613,2-25_cond_decay_EYE-try,2021.2.3,119.82529801643402,
right,1.0,0.75,0,0,0,0,0,2,0,2,0,1,2,12,1,,,,,,,,,,,,,,,10s,401.5440948116593,402.54620016692206,402.5379037456587,None,403.5376263638027,411.42898600688204,403.5376263638027,411.42898600688204,411.42898600688204,None,411.42898600688204,None,space,0.3447142131626606,411.42898600688204,None,7.8908,411.903421362862,None,,,,,,,DEC026,001,2022_Dec_06_1613,2-25_cond_decay_EYE-try,2021.2.3,119.82529801643402,
left,0.75,1.0,0,0,0,0,0,2,0,2,0,1,3,13,5,,,,,,,,,,,,,,,10s,412.99428642261773,413.99587693670765,413.9875420946628,None,414.98795783985406,421.662705573719,414.98795783985406,421.662705573719,421.65400146180764,None,421.65400146180764,None,space,0.4257007520645857,421.65400146180764,None,6.6719,422.2050027525984,None,,,,,,,DEC026,001,2022_Dec_06_1613,2-25_cond_decay_EYE-try,2021.2.3,119.82529801643402,
left,1.0,0.75,1,0,0,0,0,2,0,2,0,1,4,14,4,,,,,,,,,,,,,,,10s,423.30356313474476,424.30464656464756,424.29616171168163,None,425.2961729946546,427.00441145757213,425.2961729946546,427.00441145757213,426.99573646485806,427.99595483765006,426.99573646485806,427.99595483765006,None,,426.99573646485806,427.99595483765006,1.7016,428.12859336985275,None,,,,,,,DEC026,001,2022_Dec_06_1613,2-25_cond_decay_EYE-try,2021.2.3,119.82529801643402,
left,0.75,1.0,0,0,0,0,0,2,0,2,0,1,5,15,9,,,,,,,,,,,,,,,10s,429.220033950638,430.2212416646071,430.21270286664367,None,431.2127503119409,436.10478836577386,431.2127503119409,436.10478836577386,436.0960471876897,None,436.0960471876897,None,space,0.3697374342009425,436.0960471876897,None,4.8898,436.59489133162424,None,,,,,,,DEC026,001,2022_Dec_06_1613,2-25_cond_decay_EYE-try,2021.2.3,119.82529801643402,
right,1.0,0.75,0,0,0,0,0,2,0,2,0,1,6,16,7,,,,,,,,,,,,,,,10s,437.68745055096224,438.68805425055325,438.6796137825586,None,439.67977101681754,445.27156314300373,439.67977101681754,445.27156314300373,445.2628698647022,None,445.2628698647022,None,space,0.325188806746155,445.2628698647022,None,5.5857,445.7134489165619,None,,,,,,,DEC026,001,2022_Dec_06_1613,2-25_cond_decay_EYE-try,2021.2.3,119.82529801643402,
right,1.0,0.75,0,0,0,0,0,2,0,2,0,1,7,17,6,,,,,,,,,,,,,,,10s,446.81146249966696,447.81247414369136,447.8050688127987,None,448.8042922578752,454.3213866157457,448.8042922578752,454.3213866157457,454.3213866157457,None,454.3213866157457,None,space,0.43546606600284576,454.3213866157457,None,5.5148,454.8870418057777,None,,,,,,,DEC026,001,2022_Dec_06_1613,2-25_cond_decay_EYE-try,2021.2.3,119.82529801643402,
right,1.0,0.75,0,0,0,0,0,2,0,2,0,1,8,18,3,,,,,,,,,,,,,,,10s,455.97797949565575,456.97947389958426,456.9714998216368,None,457.97146486258134,458.8381770858541,457.97146486258134,458.8381770858541,458.8381770858541,None,458.8381770858541,None,space,0.7275781366042793,458.8381770858541,None,0.8658,459.6952091669664,None,,,,,,,DEC026,001,2022_Dec_06_1613,2-25_cond_decay_EYE-try,2021.2.3,119.82529801643402,
right,0.75,1.0,1,0,0,0,0,2,0,2,0,1,9,19,2,,,,,,,,,,,,,,,10s,460.7864359486848,461.78828748874366,461.7714582798071,None,462.77187941689044,468.4548881556839,462.77187941689044,468.4548881556839,468.4548881556839,None,468.4548881556839,None,space,0.38385335821658373,468.4548881556839,None,5.6806,468.9704720247537,None,,,,,,,DEC026,001,2022_Dec_06_1613,2-25_cond_decay_EYE-try,2021.2.3,119.82529801643402,
,,,,0,0,0,0,2,0,2,0,,,,,,,,,,,,,,,,,,,,,,,,,,,,,,,,,,,,,,,,,,,,,DEC026,001,2022_Dec_06_1613,2-25_cond_decay_EYE-try,2021.2.3,119.82529801643402,
right,1.0,0.75,0,0,0,0,0,3,0,3,0,0,0,0,7,,,,,,,,,469.86147986678407,None,469.86147986678407,None,469.86147986678407,None,3s,473.0782178407535,474.0803365036845,474.07128173066303,None,475.07189999800175,475.8711494766176,475.07189999800175,475.8711494766176,475.8633415820077,None,475.8633415820077,None,space,0.4861993743106723,475.8633415820077,None,0.7969,476.47834500391036,None,,,,,,,DEC026,001,2022_Dec_06_1613,2-25_cond_decay_EYE-try,2021.2.3,119.82529801643402,
left,0.75,1.0,0,0,0,0,0,3,0,3,0,0,1,1,9,,,,,,,,,,,,,,,3s,477.57018921291456,478.57196599571034,478.55492302170023,None,479.5552418329753,480.48853567801416,479.5552418329753,480.48853567801416,480.48853567801416,None,480.48853567801416,None,space,0.3167497171089053,480.48853567801416,None,0.9334,480.9302031765692,None,,,,,,,DEC026,001,2022_Dec_06_1613,2-25_cond_decay_EYE-try,2021.2.3,119.82529801643402,
right,1.0,0.75,0,0,0,0,0,3,0,3,0,0,2,2,5,,,,,,,,,,,,,,,3s,482.03704668488353,483.0377994198352,483.0299390279688,None,484.0300629036501,486.3797892127186,484.0300629036501,486.3797892127186,486.3721643895842,None,486.3721643895842,None,space,0.28565041301772,486.3721643895842,None,2.3439,486.7867309176363,None,,,,,,,DEC026,001,2022_Dec_06_1613,2-25_cond_decay_EYE-try,2021.2.3,119.82529801643402,
right,1.0,0.75,0,0,0,0,0,3,0,3,0,0,3,3,8,,,,,,,,,,,,,,,3s,487.87173055671155,488.87201241683215,488.863815816585,None,489.86378795979545,490.5551195847802,489.86378795979545,490.5551195847802,490.5465076658875,None,490.5465076658875,None,space,0.4344446361064911,490.5465076658875,None,0.6844,491.10452279867604,None,,,,,,,DEC026,001,2022_Dec_06_1613,2-25_cond_decay_EYE-try,2021.2.3,119.82529801643402,
right,1.0,0.75,0,0,0,0,0,3,0,3,0,0,4,4,3,,,,,,,,,,,,,,,3s,492.19714441662654,493.19665039377287,493.1881418139674,None,494.1879167747684,496.9888182505965,494.1879167747684,496.9888182505965,496.9888182505965,None,496.9888182505965,None,space,0.3026786050759256,496.9888182505965,None,2.794,497.4210147317499,None,,,,,,,DEC026,001,2022_Dec_06_1613,2-25_cond_decay_EYE-try,2021.2.3,119.82529801643402,
left,0.75,1.0,0,0,0,0,0,3,0,3,0,0,5,5,6,,,,,,,,,,,,,,,3s,498.51279143663123,499.5139500317164,499.50542572978884,None,500.5049074930139,500.8134708707221,500.5049074930139,500.8134708707221,500.804829406552,None,500.804829406552,None,space,0.6258408296853304,500.804829406552,None,0.3057,501.5552857648581,None,,,,,,,DEC026,001,2022_Dec_06_1613,2-25_cond_decay_EYE-try,2021.2.3,119.82529801643402,
left,0.75,1.0,0,0,0,0,0,3,0,3,0,0,6,6,0,,,,,,,,,,,,,,,3s,502.65424573561177,503.65478264400735,503.6472993940115,None,504.6473684585653,506.8132122317329,504.6473684585653,506.8132122317329,506.80563533771783,None,506.80563533771783,None,space,0.35201777005568147,506.80563533771783,None,2.1605,507.2877620588988,None,,,,,,,DEC026,001,2022_Dec_06_1613,2-25_cond_decay_EYE-try,2021.2.3,119.82529801643402,
left,1.0,0.75,1,0,0,0,0,3,0,3,0,0,7,7,2,,,,,,,,,,,,,,,3s,508.37856030790135,509.3798929308541,509.3715840377845,None,510.37177446484566,510.6472417986952,510.37177446484566,510.6472417986952,510.6472417986952,None,510.6472417986952,None,space,0.9756104489788413,510.6472417986952,None,0.2753,511.75453473394737,None,,,,,,,DEC026,001,2022_Dec_06_1613,2-25_cond_decay_EYE-try,2021.2.3,119.82529801643402,
right,1.0,0.75,0,0,0,0,0,3,0,3,0,0,8,8,1,,,,,,,,,,,,,,,3s,512.8475479469635,513.8468456729315,513.8386288029142,None,514.8384228767827,516.6307777836919,514.8384228767827,516.6307777836919,516.6307777836919,None,516.6307777836919,None,space,0.41076668491587043,516.6307777836919,None,1.7893,517.1709136087447,None,,,,,,,DEC026,001,2022_Dec_06_1613,2-25_cond_decay_EYE-try,2021.2.3,119.82529801643402,
left,0.75,1.0,0,0,0,0,0,3,0,3,0,0,9,9,4,,,,,,,,,,,,,,,3s,518.2629055599682,519.2635572976433,519.2466298416257,None,520.2466982519254,523.2466148389503,520.2466982519254,523.2466148389503,523.2466148389503,None,523.2466148389503,None,space,0.35081883566454053,523.2466148389503,None,2.9969,523.7219574237242,None,,,,,,,DEC026,001,2022_Dec_06_1613,2-25_cond_decay_EYE-try,2021.2.3,119.82529801643402,
left,0.75,1.0,0,0,0,0,0,3,0,3,0,1,0,10,6,,,,,,,,,,,,,,,3s,524.8204484526068,525.8219752646983,525.8136356738396,None,526.8134887567721,528.4801879497245,526.8134887567721,528.4801879497245,528.4725811779499,None,528.4725811779499,None,space,0.4691754621453583,528.4725811779499,None,1.6664,529.0708649968728,None,,,,,,,DEC026,001,2022_Dec_06_1613,2-25_cond_decay_EYE-try,2021.2.3,119.82529801643402,
right,1.0,0.75,0,0,0,0,0,3,0,3,0,1,1,11,8,,,,,,,,,,,,,,,3s,530.164050408639,531.1639092415571,531.1556260418147,None,532.1552494405769,533.9802901125513,532.1552494405769,533.9802901125513,533.9802901125513,None,533.9802901125513,None,space,0.3696881947107613,533.9802901125513,None,1.8259,534.4789373870008,None,,,,,,,DEC026,001,2022_Dec_06_1613,2-25_cond_decay_EYE-try,2021.2.3,119.82529801643402,
right,0.75,1.0,1,0,0,0,0,3,0,3,0,1,2,12,7,,,,,,,,,,,,,,,3s,535.5628967909142,536.5634095305577,536.5555193456821,None,537.5551536609419,540.322688233573,537.5551536609419,540.322688233573,540.3137086206116,None,540.3137086206116,None,space,0.4109303639270365,540.3137086206116,None,2.7631,540.8540933527984,None,,,,,,,DEC026,001,2022_Dec_06_1613,2-25_cond_decay_EYE-try,2021.2.3,119.82529801643402,
left,0.75,1.0,0,0,0,0,0,3,0,3,0,1,3,13,0,,,,,,,,,,,,,,,3s,541.9458688977174,542.9474293477833,542.9309152755886,None,543.9302553329617,544.4804289666936,543.9302553329617,544.4804289666936,544.4804289666936,None,544.4804289666936,None,space,0.5340735078789294,544.4804289666936,None,0.5468,545.138688816689,None,,,,,,,DEC026,001,2022_Dec_06_1613,2-25_cond_decay_EYE-try,2021.2.3,119.82529801643402,
right,1.0,0.75,0,0,0,0,0,3,0,3,0,1,4,14,5,,,,,,,,,,,,,,,3s,546.2383103137836,547.2390964436345,547.2221178007312,None,548.2219581366517,548.5221617766656,548.2219581366517,548.5221617766656,548.5221617766656,None,548.5221617766656,None,space,0.450488303322345,548.5221617766656,None,0.2975,549.0959518998861,None,,,,,,,DEC026,001,2022_Dec_06_1613,2-25_cond_decay_EYE-try,2021.2.3,119.82529801643402,
left,0.75,1.0,0,0,0,0,0,3,0,3,0,1,5,15,4,,,,,,,,,,,,,,,3s,550.1959479269572,551.1974420296028,551.1891388287768,None,552.1890915497206,553.4309409456328,552.1890915497206,553.4309409456328,553.4309409456328,None,553.4309409456328,None,space,0.44456680910661817,553.4309409456328,None,1.2389,554.0042054005899,None,,,,,,,DEC026,001,2022_Dec_06_1613,2-25_cond_decay_EYE-try,2021.2.3,119.82529801643402,
right,1.0,0.75,0,0,0,0,0,3,0,3,0,1,6,16,1,,,,,,,,,,,,,,,3s,555.0967421168461,556.0978174549527,556.0893425839022,None,557.0891663460061,557.6312435078435,557.0891663460061,557.6312435078435,557.6223678137176,None,557.6223678137176,None,space,0.4273709738627076,557.6223678137176,None,0.5395,558.1792397736572,None,,,,,,,DEC026,001,2022_Dec_06_1613,2-25_cond_decay_EYE-try,2021.2.3,119.82529801643402,
left,1.0,0.75,1,0,0,0,0,3,0,3,0,1,7,17,2,,,,,,,,,,,,,,,3s,559.2708265669644,560.272233420983,560.2639029119164,None,561.2640813756734,562.4720129198395,561.2640813756734,562.4720129198395,562.4641759316437,None,562.4641759316437,None,space,0.40208460483700037,562.4641759316437,None,1.2027,562.9964663917199,None,,,,,,,DEC026,001,2022_Dec_06_1613,2-25_cond_decay_EYE-try,2021.2.3,119.82529801643402,
right,1.0,0.75,0,0,0,0,0,3,0,3,0,1,8,18,3,,,,,,,,,,,,,,,3s,564.0879325368442,565.0891858260147,565.0809517889284,None,566.0806216266938,567.8560387366451,566.0806216266938,567.8560387366451,567.8560387366451,None,567.8560387366451,None,None,,567.8560387366451,None,1.7699,568.9799000406638,None,,,,,,,DEC026,001,2022_Dec_06_1613,2-25_cond_decay_EYE-try,2021.2.3,119.82529801643402,
left,0.75,1.0,0,0,0,0,0,3,0,3,0,1,9,19,9,,,,,,,,,,,,,,,3s,570.0723785785958,571.0728339026682,571.0644948836416,None,572.0646492396481,574.472335670609,572.0646492396481,574.472335670609,574.472335670609,None,574.472335670609,None,space,0.3099817610345781,574.472335670609,None,2.405,574.9127402487211,None,,,,,,,DEC026,001,2022_Dec_06_1613,2-25_cond_decay_EYE-try,2021.2.3,119.82529801643402,
,,,,0,0,0,0,3,0,3,0,,,,,,,,,,,,,,,,,,,,,,,,,,,,,,,,,,,,,,,,,,,,,DEC026,001,2022_Dec_06_1613,2-25_cond_decay_EYE-try,2021.2.3,119.82529801643402,
,,,,0,0,0,0,,,,,,,,,,,,,,,,,,,,,,,,,,,,,,,,,,,,,,,,,,,575.8047438608482,None,575.8047438608482,None,575.8047438608482,None,DEC026,001,2022_Dec_06_1613,2-25_cond_decay_EYE-try,2021.2.3,119.82529801643402,
right,1.0,0.75,0,1,0,1,0,0,0,0,0,0,0,0,5,,,,,,,,,580.8043468915857,None,580.8043468915857,None,580.8043468915857,None,1s,593.6462454549037,594.6477462858893,594.6397828930058,None,595.6310515389778,596.1143397386186,595.6310515389778,596.1143397386186,596.1143397386186,None,596.1143397386186,None,space,0.4023724109865725,596.1143397386186,None,0.4768,596.6461949148215,None,,,,,,,DEC026,001,2022_Dec_06_1613,2-25_cond_decay_EYE-try,2021.2.3,119.82529801643402,
left,0.75,1.0,0,1,0,1,0,0,0,0,0,0,1,1,9,,,,,,,,,,,,,,,1s,597.73982933769,598.7397799999453,598.7312995316461,None,599.7315099779516,600.3895733449608,599.7315099779516,600.3895733449608,600.3895733449608,None,600.3895733449608,None,space,0.3032438447698951,600.3895733449608,None,0.6568,600.8217264758423,None,,,,,,,DEC026,001,2022_Dec_06_1613,2-25_cond_decay_EYE-try,2021.2.3,119.82529801643402,
right,1.0,0.75,0,1,0,1,0,0,0,0,0,0,2,2,2,,,,,,,,,,,,,,,1s,601.9136693775654,602.9142212709412,602.9058425626718,None,603.9064819477499,604.3065205216408,603.9064819477499,604.3065205216408,604.2980587328784,None,604.2980587328784,None,space,0.3601955631747842,604.2980587328784,None,0.3966,604.7887262618169,None,,,,,,,DEC026,001,2022_Dec_06_1613,2-25_cond_decay_EYE-try,2021.2.3,119.82529801643402,
right,1.0,0.75,0,1,0,1,0,0,0,0,0,0,3,3,4,,,,,,,,,,,,,,,1s,605.8730755629949,606.8728837887757,606.8651735987514,None,607.8647258579731,608.6817341009155,607.8647258579731,608.6817341009155,608.6817341009155,None,608.6817341009155,None,space,0.5085349888540804,608.6817341009155,None,0.8105,609.3148762676865,None,,,,,,,DEC026,001,2022_Dec_06_1613,2-25_cond_decay_EYE-try,2021.2.3,119.82529801643402,
right,1.0,0.75,0,1,0,1,0,0,0,0,0,0,4,4,3,,,,,,,,,,,,,,,1s,610.40508411685,611.4065631087869,611.3975745979697,None,612.3985151108354,613.3731222385541,612.3985151108354,613.3731222385541,613.3731222385541,None,613.3731222385541,None,space,0.3274692399427295,613.3731222385541,None,0.9758,613.8297589407302,None,,,,,,,DEC026,001,2022_Dec_06_1613,2-25_cond_decay_EYE-try,2021.2.3,119.82529801643402,
left,0.75,1.0,0,1,0,1,0,0,0,0,0,0,5,5,1,,,,,,,,,,,,,,,1s,614.9217776139267,615.9229168510064,615.9145848476328,None,616.91429512389,617.097903394606,616.91429512389,617.097903394606,617.0900866957381,None,617.0900866957381,None,space,0.4923387449234724,617.0900866957381,None,0.1786,617.7063290299848,None,,,,,,,DEC026,001,2022_Dec_06_1613,2-25_cond_decay_EYE-try,2021.2.3,119.82529801643402,
left,0.75,1.0,0,1,0,1,0,0,0,0,0,0,6,6,0,,,,,,,,,,,,,,,1s,618.7636701269075,619.764470487833,619.7559750867076,None,620.7560237660073,621.5560677968897,620.7560237660073,621.5560677968897,621.548355891835,None,621.548355891835,None,space,0.34425064688548446,621.548355891835,None,0.7933,622.0217180517502,None,,,,,,,DEC026,001,2022_Dec_06_1613,2-25_cond_decay_EYE-try,2021.2.3,119.82529801643402,
right,1.0,0.75,0,1,0,1,0,0,0,0,0,0,7,7,8,,,,,,,,,,,,,,,1s,623.0804052138701,624.0810681488365,624.0647453446873,None,625.0652371179312,625.4232460027561,625.0652371179312,625.4232460027561,625.4232460027561,None,625.4232460027561,None,space,0.359163461253047,625.4232460027561,None,0.3521,625.9069436998107,None,,,,,,,DEC026,001,2022_Dec_06_1613,2-25_cond_decay_EYE-try,2021.2.3,119.82529801643402,
right,0.75,1.0,1,1,0,1,0,0,0,0,0,0,8,8,6,,,,,,,,,,,,,,,1s,626.9632447687909,627.96445152862,627.9561833576299,None,628.9562799059786,629.5399048277177,628.9562799059786,629.5399048277177,629.5399048277177,None,629.5399048277177,None,space,0.32742393808439374,629.5399048277177,None,0.5838,629.9971133056097,None,,,,,,,DEC026,001,2022_Dec_06_1613,2-25_cond_decay_EYE-try,2021.2.3,119.82529801643402,
left,0.75,1.0,0,1,0,1,0,0,0,0,0,0,9,9,7,,,,,,,,,,,,,,,1s,631.0556174726225,632.056523875799,632.0482317456044,None,633.0480383746326,633.7228153818287,633.0480383746326,633.7228153818287,633.7152152126655,None,633.7152152126655,None,space,0.3268886310979724,633.7152152126655,None,0.6727,634.1715776706114,None,,,,,,,DEC026,001,2022_Dec_06_1613,2-25_cond_decay_EYE-try,2021.2.3,119.82529801643402,
right,1.0,0.75,0,1,0,1,0,0,0,0,0,1,0,10,3,,,,,,,,,,,,,,,1s,635.2217858056538,636.2229276518337,636.2155094286427,None,637.2151774568483,637.8815210247412,637.2151774568483,637.8815210247412,637.8728252626024,None,637.8728252626024,None,space,0.33447249280288815,637.8728252626024,None,0.6632,638.3322574929334,None,,,,,,,DEC026,001,2022_Dec_06_1613,2-25_cond_decay_EYE-try,2021.2.3,119.82529801643402,
left,0.75,1.0,0,1,0,1,0,0,0,0,0,1,1,11,0,,,,,,,,,,,,,,,1s,639.3889437247999,640.3900223597884,640.3819431988522,None,641.3821338177659,642.0898338337429,641.3821338177659,642.0898338337429,642.0898338337429,None,642.0898338337429,None,space,0.2757996963337064,642.0898338337429,None,0.7076,642.4896994917654,None,,,,,,,DEC026,001,2022_Dec_06_1613,2-25_cond_decay_EYE-try,2021.2.3,119.82529801643402,
left,0.75,1.0,0,1,0,1,0,0,0,0,0,1,2,12,7,,,,,,,,,,,,,,,1s,643.5552484188229,644.5562976249494,644.5479855528101,None,645.5401035747491,645.7569735166617,645.5401035747491,645.7569735166617,645.7569735166617,None,645.7569735166617,None,space,0.5021951529197395,645.7569735166617,None,0.2157,646.3892173208296,None,,,,,,,DEC026,001,2022_Dec_06_1613,2-25_cond_decay_EYE-try,2021.2.3,119.82529801643402,
right,1.0,0.75,0,1,0,1,0,0,0,0,0,1,3,13,8,,,,,,,,,,,,,,,1s,647.4642594559118,648.4652085946873,648.4569254466332,None,649.4571633045562,650.2067646016367,649.4571633045562,650.2067646016367,650.198044880759,None,650.198044880759,None,space,0.2868376988917589,650.198044880759,None,0.7449,650.6136197419837,None,,,,,,,DEC026,001,2022_Dec_06_1613,2-25_cond_decay_EYE-try,2021.2.3,119.82529801643402,
left,0.75,1.0,0,1,0,1,0,0,0,0,0,1,4,14,9,,,,,,,,,,,,,,,1s,651.7059563626535,652.7068081097677,652.6983903176151,None,653.6984246918,654.5821096049622,653.6984246918,654.5821096049622,654.573367821984,None,654.573367821984,None,space,0.26882216101512313,654.573367821984,None,0.876,654.9726718249731,None,,,,,,,DEC026,001,2022_Dec_06_1613,2-25_cond_decay_EYE-try,2021.2.3,119.82529801643402,
left,1.0,0.75,1,1,0,1,0,0,0,0,0,1,5,15,5,,,,,,,,,,,,,,,1s,656.0233515226282,657.0232530226931,657.0149575928226,None,658.0147742419504,658.7404499007389,658.0147742419504,658.7404499007389,658.7404499007389,None,658.7404499007389,None,space,0.25014902371913195,658.7404499007389,None,0.721,659.1147616696544,None,,,,,,,DEC026,001,2022_Dec_06_1613,2-25_cond_decay_EYE-try,2021.2.3,119.82529801643402,
right,1.0,0.75,0,1,0,1,0,0,0,0,0,1,6,16,2,,,,,,,,,,,,,,,1s,660.1720189056359,661.1735292957164,661.1648247996345,None,662.1655979128554,662.9901248319075,662.1655979128554,662.9901248319075,662.9815069478936,None,662.9815069478936,None,space,0.285848094150424,662.9815069478936,None,0.8192,663.3969927746803,None,,,,,,,DEC026,001,2022_Dec_06_1613,2-25_cond_decay_EYE-try,2021.2.3,119.82529801643402,
right,1.0,0.75,0,1,0,1,0,0,0,0,0,1,7,17,4,,,,,,,,,,,,,,,1s,664.4482296416536,665.449173444882,665.4400912066922,None,666.4407340385951,666.9399990877137,666.4407340385951,666.9399990877137,666.9399990877137,None,666.9399990877137,None,space,0.3926360681653023,666.9399990877137,None,0.4988,667.456825144589,None,,,,,,,DEC026,001,2022_Dec_06_1613,2-25_cond_decay_EYE-try,2021.2.3,119.82529801643402,
left,0.75,1.0,0,1,0,1,0,0,0,0,0,1,8,18,1,,,,,,,,,,,,,,,1s,668.5220100088045,669.5237289248034,669.5154308429919,None,670.5150276087224,670.8490057257004,670.5150276087224,670.8490057257004,670.8490057257004,None,670.8490057257004,None,space,0.9507926381193101,670.8490057257004,None,0.3303,671.9307689056732,None,,,,,,,DEC026,001,2022_Dec_06_1613,2-25_cond_decay_EYE-try,2021.2.3,119.82529801643402,
right,0.75,1.0,1,1,0,1,0,0,0,0,0,1,9,19,6,,,,,,,,,,,,,,,1s,672.989548753947,673.9901037868112,673.9737934889272,None,674.9737847088836,675.4657879238948,674.9737847088836,675.4657879238948,675.4657879238948,None,675.4657879238948,None,space,0.31676085293293,675.4657879238948,None,0.4922,675.9146139440127,None,,,,,,,DEC026,001,2022_Dec_06_1613,2-25_cond_decay_EYE-try,2021.2.3,119.82529801643402,
,,,,1,0,1,0,0,0,0,0,,,,,,,,,,,,,,,,,,,,,,,,,,,,,,,,,,,,,,,,,,,,,DEC026,001,2022_Dec_06_1613,2-25_cond_decay_EYE-try,2021.2.3,119.82529801643402,
right,1.0,0.75,0,1,0,1,0,1,0,1,0,0,0,0,5,,,,,,,,,676.8055264269933,None,676.8055264269933,None,676.8055264269933,None,10s,677.8827514876612,678.8906512740068,678.8734004260041,None,679.8734826068394,684.1654081689194,679.8734826068394,684.1654081689194,684.1654081689194,None,684.1654081689194,None,space,0.35106031596660614,684.1654081689194,None,4.2867,684.6475858115591,None,,,,,,,DEC026,001,2022_Dec_06_1613,2-25_cond_decay_EYE-try,2021.2.3,119.82529801643402,
left,1.0,0.75,1,1,0,1,0,1,0,1,0,0,1,1,8,,,,,,,,,,,,,,,10s,685.7056965045631,686.7066613817587,686.690285586752,None,687.6986439726315,688.3405283237807,687.6986439726315,688.3405283237807,688.33177758893,None,688.33177758893,None,None,,688.33177758893,None,0.6397,689.455935746897,None,,,,,,,DEC026,001,2022_Dec_06_1613,2-25_cond_decay_EYE-try,2021.2.3,119.82529801643402,
right,1.0,0.75,0,1,0,1,0,1,0,1,0,0,2,2,1,,,,,,,,,,,,,,,10s,690.5058810906485,691.5077107446268,691.4906656946987,None,692.4904713067226,697.3155113519169,692.4904713067226,697.3155113519169,697.3155113519169,None,697.3155113519169,None,space,0.5861571030691266,697.3155113519169,None,4.8196,698.031489346642,None,,,,,,,DEC026,001,2022_Dec_06_1613,2-25_cond_decay_EYE-try,2021.2.3,119.82529801643402,
right,1.0,0.75,0,1,0,1,0,1,0,1,0,0,3,3,4,,,,,,,,,,,,,,,10s,699.0810396359302,700.0821735979989,700.0737821809016,None,701.0744564789347,704.6321063437499,701.0744564789347,704.6321063437499,704.6243980359286,None,704.6243980359286,None,space,0.3672437588684261,704.6243980359286,None,3.5553,705.1227918849327,None,,,,,,,DEC026,001,2022_Dec_06_1613,2-25_cond_decay_EYE-try,2021.2.3,119.82529801643402,
right,1.0,0.75,0,1,0,1,0,1,0,1,0,0,4,4,7,,,,,,,,,,,,,,,10s,706.1725012678653,707.1741409329697,707.1656450447626,None,708.1661344668828,716.3745130407624,708.1661344668828,716.3745130407624,716.3745130407624,None,716.3745130407624,None,None,,716.3745130407624,None,8.2068,717.4984611310065,None,,,,,,,DEC026,001,2022_Dec_06_1613,2-25_cond_decay_EYE-try,2021.2.3,119.82529801643402,
left,0.75,1.0,0,1,0,1,0,1,0,1,0,0,5,5,0,,,,,,,,,,,,,,,10s,718.5566143798642,719.5576457828283,719.5492163747549,None,720.549072871916,727.2828755457886,720.549072871916,727.2828755457886,727.2742490679957,None,727.2742490679957,None,space,0.4104484561830759,727.2742490679957,None,6.7263,727.815172388684,None,,,,,,,DEC026,001,2022_Dec_06_1613,2-25_cond_decay_EYE-try,2021.2.3,119.82529801643402,
left,0.75,1.0,0,1,0,1,0,1,0,1,0,0,6,6,2,,,,,,,,,,,,,,,10s,728.8650146359578,729.8659571097232,729.8575493688695,None,730.857194179669,731.6748176366091,730.857194179669,731.6748176366091,731.6748176366091,None,731.6748176366091,None,space,0.5351915471255779,731.6748176366091,None,0.8167,732.3393788067624,None,,,,,,,DEC026,001,2022_Dec_06_1613,2-25_cond_decay_EYE-try,2021.2.3,119.82529801643402,
left,0.75,1.0,0,1,0,1,0,1,0,1,0,0,7,7,6,,,,,,,,,,,,,,,10s,733.3983549317345,734.3989211898297,734.3915328956209,None,735.3914914787747,741.7076866528951,735.3914914787747,741.7076866528951,741.6991485808976,None,741.6991485808976,None,space,0.4761613388545811,741.6991485808976,None,6.3127,742.299116792623,None,,,,,,,DEC026,001,2022_Dec_06_1613,2-25_cond_decay_EYE-try,2021.2.3,119.82529801643402,
left,0.75,1.0,0,1,0,1,0,1,0,1,0,0,8,8,3,,,,,,,,,,,,,,,10s,743.357286894694,744.3574243909679,744.3494648719206,None,745.3489690516144,754.0912158866413,745.3489690516144,754.0912158866413,754.0912158866413,None,754.0912158866413,None,space,0.5365079729817808,754.0912158866413,None,8.7407,754.7567141680047,None,,,,,,,DEC026,001,2022_Dec_06_1613,2-25_cond_decay_EYE-try,2021.2.3,119.82529801643402,
right,0.75,1.0,1,1,0,1,0,1,0,1,0,0,9,9,9,,,,,,,,,,,,,,,10s,755.814910643734,756.815841672942,756.8076031445526,None,757.8077685618773,762.5993328979239,757.8077685618773,762.5993328979239,762.5993328979239,None,762.5993328979239,None,space,0.3588374787941575,762.5993328979239,None,4.7896,763.0831327089109,None,,,,,,,DEC026,001,2022_Dec_06_1613,2-25_cond_decay_EYE-try,2021.2.3,119.82529801643402,
right,0.75,1.0,1,1,0,1,0,1,0,1,0,1,0,10,9,,,,,,,,,,,,,,,10s,764.1402784045786,765.1412845766172,765.1328293858096,None,766.1248247316107,774.691783154849,766.1248247316107,774.691783154849,774.691783154849,None,774.691783154849,None,space,0.4251176421530545,774.691783154849,None,8.5642,775.2412153016776,None,,,,,,,DEC026,001,2022_Dec_06_1613,2-25_cond_decay_EYE-try,2021.2.3,119.82529801643402,
left,0.75,1.0,0,1,0,1,0,1,0,1,0,1,1,11,6,,,,,,,,,,,,,,,10s,776.2982044597156,777.2994239795953,777.2834234028123,None,778.2837025648914,783.0666102757677,778.2837025648914,783.0666102757677,783.0666102757677,None,783.0666102757677,None,space,0.442070207092911,783.0666102757677,None,4.7806,783.632854542695,None,,,,,,,DEC026,001,2022_Dec_06_1613,2-25_cond_decay_EYE-try,2021.2.3,119.82529801643402,
right,1.0,0.75,0,1,0,1,0,1,0,1,0,1,2,12,4,,,,,,,,,,,,,,,10s,784.6905485708266,785.6914996709675,785.683366637677,None,786.6835727919824,790.7085265046917,786.6835727919824,790.7085265046917,790.6995182447135,None,790.6995182447135,None,space,0.417181977070868,790.6995182447135,None,4.0233,791.2489915508777,None,,,,,,,DEC026,001,2022_Dec_06_1613,2-25_cond_decay_EYE-try,2021.2.3,119.82529801643402,
right,1.0,0.75,0,1,0,1,0,1,0,1,0,1,3,13,1,,,,,,,,,,,,,,,10s,792.299850620795,793.3003573017195,793.2915083626285,None,794.2911985106766,797.4081512177363,794.2911985106766,797.4081512177363,797.4081512177363,None,797.4081512177363,None,space,0.41944420896470547,797.4081512177363,None,3.1161,797.9569619679824,None,,,,,,,DEC026,001,2022_Dec_06_1613,2-25_cond_decay_EYE-try,2021.2.3,119.82529801643402,
right,1.0,0.75,0,1,0,1,0,1,0,1,0,1,4,14,5,,,,,,,,,,,,,,,10s,799.0078928978182,800.0083921006881,800.0003582406789,None,801.0005318005569,806.8913600719534,801.0005318005569,806.8913600719534,806.8913600719534,None,806.8913600719534,None,space,0.33628355525434017,806.8913600719534,None,5.8892,807.3578336476348,None,,,,,,,DEC026,001,2022_Dec_06_1613,2-25_cond_decay_EYE-try,2021.2.3,119.82529801643402,
right,1.0,0.75,0,1,0,1,0,1,0,1,0,1,5,15,7,,,,,,,,,,,,,,,10s,808.4077502875589,809.4085860447958,809.400515339803,None,810.4001207435504,816.8752709846012,810.4001207435504,816.8752709846012,816.8752709846012,None,816.8752709846012,None,space,0.3191813169978559,816.8752709846012,None,6.4735,817.3236261396669,None,,,,,,,DEC026,001,2022_Dec_06_1613,2-25_cond_decay_EYE-try,2021.2.3,119.82529801643402,
left,1.0,0.75,1,1,0,1,0,1,0,1,0,1,6,16,8,,,,,,,,,,,,,,,10s,818.374801425729,819.375197973568,819.3672073087655,None,820.3668854269199,825.8006248339079,820.3668854269199,825.8006248339079,825.7920872718096,None,825.7920872718096,None,space,0.32582261599600315,825.7920872718096,None,5.4324,826.2419465095736,None,,,,,,,DEC026,001,2022_Dec_06_1613,2-25_cond_decay_EYE-try,2021.2.3,119.82529801643402,
left,0.75,1.0,0,1,0,1,0,1,0,1,0,1,7,17,0,,,,,,,,,,,,,,,10s,827.3070317078382,828.3092482807115,828.3002363909036,None,829.3006264907308,837.2007446936332,829.3006264907308,837.2007446936332,837.1922514229082,None,837.1922514229082,None,space,0.3613153202459216,837.1922514229082,None,7.9,837.68211808661,None,,,,,,,DEC026,001,2022_Dec_06_1613,2-25_cond_decay_EYE-try,2021.2.3,119.82529801643402,
left,0.75,1.0,0,1,0,1,0,1,0,1,0,1,8,18,2,,,,,,,,,,,,,,,10s,838.7323589096777,839.7336182147264,839.7255545565858,None,840.7257423936389,849.6089604678564,840.7257423936389,849.6089604678564,849.6002742839046,None,849.6002742839046,None,space,0.386181787122041,849.6002742839046,None,8.877,850.1159297367558,None,,,,,,,DEC026,001,2022_Dec_06_1613,2-25_cond_decay_EYE-try,2021.2.3,119.82529801643402,
left,0.75,1.0,0,1,0,1,0,1,0,1,0,1,9,19,3,,,,,,,,,,,,,,,10s,851.1669526807964,852.1676517347805,852.1586035136133,None,853.1591768967919,858.9176474646665,853.1591768967919,858.9176474646665,858.9176474646665,None,858.9176474646665,None,space,0.4860530733130872,858.9176474646665,None,5.7582,859.5327895176597,None,,,,,,,DEC026,001,2022_Dec_06_1613,2-25_cond_decay_EYE-try,2021.2.3,119.82529801643402,
,,,,1,0,1,0,1,0,1,0,,,,,,,,,,,,,,,,,,,,,,,,,,,,,,,,,,,,,,,,,,,,,DEC026,001,2022_Dec_06_1613,2-25_cond_decay_EYE-try,2021.2.3,119.82529801643402,
left,0.75,1.0,0,1,0,1,0,2,0,2,0,0,0,0,2,,,,,,,,,860.4243043838069,None,860.4243043838069,None,860.4243043838069,None,3s,1002.6593511248939,1003.6604324267246,1003.6438186326995,None,1004.6439394936897,1007.2434688596986,1004.6439394936897,1007.2434688596986,1007.2434688596986,None,1007.2434688596986,None,space,0.3531514531932771,1007.2434688596986,None,2.6006,1007.7262082998641,None,,,,,,,DEC026,001,2022_Dec_06_1613,2-25_cond_decay_EYE-try,2021.2.3,119.82529801643402,
right,1.0,0.75,0,1,0,1,0,2,0,2,0,0,1,1,3,,,,,,,,,,,,,,,3s,1008.7841149796732,1009.7851495048963,1009.7771640848368,None,1010.7770251985639,1011.3193540535867,1010.7770251985639,1011.3193540535867,1011.3107186998241,None,1011.3107186998241,None,space,0.5507634547539055,1011.3107186998241,None,0.5373,1011.9857968059368,None,,,,,,,DEC026,001,2022_Dec_06_1613,2-25_cond_decay_EYE-try,2021.2.3,119.82529801643402,
left,0.75,1.0,0,1,0,1,0,2,0,2,0,0,2,2,0,,,,,,,,,,,,,,,3s,1013.0424051620066,1014.044348126743,1014.0362334968522,None,1015.0358098265715,1016.6355509837158,1015.0358098265715,1016.6355509837158,1016.6355509837158,None,1016.6355509837158,None,space,0.4838481922633946,1016.6355509837158,None,1.6001,1017.2445733728819,None,,,,,,,DEC026,001,2022_Dec_06_1613,2-25_cond_decay_EYE-try,2021.2.3,119.82529801643402,
left,1.0,0.75,1,1,0,1,0,2,0,2,0,0,3,3,5,,,,,,,,,,,,,,,3s,1018.3010473176837,1019.302098099608,1019.2943887636065,None,1020.2938579525799,1022.4777758456767,1020.2938579525799,1022.4777758456767,1022.4777758456767,None,1022.4777758456767,None,space,0.9358209357596934,1022.4777758456767,None,2.1819,1023.5433283187449,None,,,,,,,DEC026,001,2022_Dec_06_1613,2-25_cond_decay_EYE-try,2021.2.3,119.82529801643402,
left,0.75,1.0,0,1,0,1,0,2,0,2,0,0,4,4,8,,,,,,,,,,,,,,,3s,1024.5928784999996,1025.5938002588227,1025.586315669585,None,1026.5861483528279,1027.5940639879555,1026.5861483528279,1027.5940639879555,1027.5940639879555,None,1027.5940639879555,None,space,0.46793182007968426,1027.5940639879555,None,1.0085,1028.1928148209117,None,,,,,,,DEC026,001,2022_Dec_06_1613,2-25_cond_decay_EYE-try,2021.2.3,119.82529801643402,
left,0.75,1.0,0,1,0,1,0,2,0,2,0,0,5,5,6,,,,,,,,,,,,,,,3s,1029.243415120989,1030.2438040929846,1030.2357053067535,None,1031.2356553208083,1032.8939715898596,1031.2356553208083,1032.8939715898596,1032.8860001927242,None,1032.8860001927242,None,space,0.4176290729083121,1032.8860001927242,None,1.6516,1033.4348584515974,None,,,,,,,DEC026,001,2022_Dec_06_1613,2-25_cond_decay_EYE-try,2021.2.3,119.82529801643402,
right,1.0,0.75,0,1,0,1,0,2,0,2,0,0,6,6,7,,,,,,,,,,,,,,,3s,1034.4928430938162,1035.4948337338865,1035.477387537714,None,1036.477770711761,1037.5775424917229,1036.477770711761,1037.5775424917229,1037.5775424917229,None,1037.5775424917229,None,space,0.34480181289836764,1037.5775424917229,None,1.0982,1038.051059243735,None,,,,,,,DEC026,001,2022_Dec_06_1613,2-25_cond_decay_EYE-try,2021.2.3,119.82529801643402,
right,0.75,1.0,1,1,0,1,0,2,0,2,0,0,7,7,4,,,,,,,,,,,,,,,3s,1039.1098700887524,1040.1109241247177,1040.0947541287169,None,1041.09430972673,1042.9448028267361,1041.09430972673,1042.9448028267361,1042.9448028267361,None,1042.9448028267361,None,space,0.4915931290015578,1042.9448028267361,None,1.845,1043.5608804807998,None,,,,,,,DEC026,001,2022_Dec_06_1613,2-25_cond_decay_EYE-try,2021.2.3,119.82529801643402,
right,1.0,0.75,0,1,0,1,0,2,0,2,0,0,8,8,1,,,,,,,,,,,,,,,3s,1044.6264805458486,1045.6275724759325,1045.6196124367416,None,1046.61904514255,1049.2197236008942,1046.61904514255,1049.2197236008942,1049.2197236008942,None,1049.2197236008942,None,space,0.3518591308966279,1049.2197236008942,None,2.6,1049.7011759895831,None,,,,,,,DEC026,001,2022_Dec_06_1613,2-25_cond_decay_EYE-try,2021.2.3,119.82529801643402,
left,0.75,1.0,0,1,0,1,0,2,0,2,0,0,9,9,9,,,,,,,,,,,,,,,3s,1050.7599552157335,1051.7613747445866,1051.7443049196154,None,1052.7443768917583,1055.5190845876932,1052.7443768917583,1055.5190845876932,1055.5190845876932,None,1055.5190845876932,None,space,0.4284211238846183,1055.5190845876932,None,2.771,1056.0770234907977,None,,,,,,,DEC026,001,2022_Dec_06_1613,2-25_cond_decay_EYE-try,2021.2.3,119.82529801643402,
left,0.75,1.0,0,1,0,1,0,2,0,2,0,1,0,10,9,,,,,,,,,,,,,,,3s,1057.1268148426898,1058.127461916767,1058.1190990987234,None,1059.1191411949694,1060.2109245918691,1059.1191411949694,1060.2109245918691,1060.2109245918691,None,1060.2109245918691,None,space,0.4595204354263842,1060.2109245918691,None,1.0906,1060.801133335568,None,,,,,,,DEC026,001,2022_Dec_06_1613,2-25_cond_decay_EYE-try,2021.2.3,119.82529801643402,
right,0.75,1.0,1,1,0,1,0,2,0,2,0,1,1,11,4,,,,,,,,,,,,,,,3s,1061.8519299798645,1062.853419512976,1062.8361115646549,None,1063.8362429216504,1066.4699639966711,1063.8362429216504,1066.4699639966711,1066.4699639966711,None,1066.4699639966711,None,space,0.33577043283730745,1066.4699639966711,None,2.629,1066.9346592477523,None,,,,,,,DEC026,001,2022_Dec_06_1613,2-25_cond_decay_EYE-try,2021.2.3,119.82529801643402,
left,1.0,0.75,1,1,0,1,0,2,0,2,0,1,2,12,5,,,,,,,,,,,,,,,3s,1067.993421065621,1068.9949096627533,1068.977718998678,None,1069.9776358059607,1070.5033815507777,1069.9776358059607,1070.5033815507777,1070.5033815507777,None,1070.5033815507777,None,space,0.5746895610354841,1070.5033815507777,None,0.5236,1071.2034651157446,None,,,,,,,DEC026,001,2022_Dec_06_1613,2-25_cond_decay_EYE-try,2021.2.3,119.82529801643402,
left,0.75,1.0,0,1,0,1,0,2,0,2,0,1,3,13,6,,,,,,,,,,,,,,,3s,1072.2597296936437,1073.2616728129797,1073.2526948489249,None,1074.2530533676036,1075.461452013813,1074.2530533676036,1075.461452013813,1075.461452013813,None,1075.461452013813,None,space,0.48605178017169237,1075.461452013813,None,1.2082,1076.0764365047216,None,,,,,,,DEC026,001,2022_Dec_06_1613,2-25_cond_decay_EYE-try,2021.2.3,119.82529801643402,
left,0.75,1.0,0,1,0,1,0,2,0,2,0,1,4,14,0,,,,,,,,,,,,,,,3s,1077.126592347864,1078.1284332759678,1078.119164957665,None,1079.119324051775,1079.544255763758,1079.119324051775,1079.544255763758,1079.544255763758,None,1079.544255763758,None,space,0.37768589798361063,1079.544255763758,None,0.4235,1080.0521094589494,None,,,,,,,DEC026,001,2022_Dec_06_1613,2-25_cond_decay_EYE-try,2021.2.3,119.82529801643402,
right,1.0,0.75,0,1,0,1,0,2,0,2,0,1,5,15,1,,,,,,,,,,,,,,,3s,1081.1102367429994,1082.111725189723,1082.1028808127157,None,1083.09434787184,1083.8281191899441,1083.09434787184,1083.8281191899441,1083.8281191899441,None,1083.8281191899441,None,space,0.4339904300868511,1083.8281191899441,None,0.7329,1084.3935825028457,None,,,,,,,DEC026,001,2022_Dec_06_1613,2-25_cond_decay_EYE-try,2021.2.3,119.82529801643402,
right,1.0,0.75,0,1,0,1,0,2,0,2,0,1,6,16,2,,,,,,,,,,,,,,,3s,1085.444820092991,1086.4449723288417,1086.4364149887115,None,1087.4362445287406,1087.92028783774,1087.4362445287406,1087.92028783774,1087.92028783774,None,1087.92028783774,None,space,0.5746883880347013,1087.92028783774,None,0.4774,1088.6185586205684,None,,,,,,,DEC026,001,2022_Dec_06_1613,2-25_cond_decay_EYE-try,2021.2.3,119.82529801643402,
right,1.0,0.75,0,1,0,1,0,2,0,2,0,1,7,17,3,,,,,,,,,,,,,,,3s,1089.676472067833,1090.678173854947,1090.6700294297189,None,1091.6696542468853,1093.9532778318971,1091.6696542468853,1093.9532778318971,1093.9532778318971,None,1093.9532778318971,None,space,0.42733896523714066,1093.9532778318971,None,2.2833,1094.5099963536486,None,,,,,,,DEC026,001,2022_Dec_06_1613,2-25_cond_decay_EYE-try,2021.2.3,119.82529801643402,
left,0.75,1.0,0,1,0,1,0,2,0,2,0,1,8,18,8,,,,,,,,,,,,,,,3s,1095.5691958288662,1096.5702063660137,1096.5612465878949,None,1097.5617712838575,1098.5368326245807,1097.5617712838575,1098.5368326245807,1098.5368326245807,None,1098.5368326245807,None,space,0.41069753700867295,1098.5368326245807,None,0.9754,1099.0773130077869,None,,,,,,,DEC026,001,2022_Dec_06_1613,2-25_cond_decay_EYE-try,2021.2.3,119.82529801643402,
right,1.0,0.75,0,1,0,1,0,2,0,2,0,1,9,19,7,,,,,,,,,,,,,,,3s,1100.135048024822,1101.1372137665749,1101.1279599168338,None,1102.128827362787,1102.70354631776,1102.128827362787,1102.70354631776,1102.6950574386865,None,1102.6950574386865,None,space,0.34227044275030494,1102.6950574386865,None,0.5704,1103.1616414375603,None,,,,,,,DEC026,001,2022_Dec_06_1613,2-25_cond_decay_EYE-try,2021.2.3,119.82529801643402,
,,,,1,0,1,0,2,0,2,0,,,,,,,,,,,,,,,,,,,,,,,,,,,,,,,,,,,,,,,,,,,,,DEC026,001,2022_Dec_06_1613,2-25_cond_decay_EYE-try,2021.2.3,119.82529801643402,
left,0.75,1.0,0,1,0,1,0,3,0,3,0,0,0,0,3,,,,,,,,,1104.0599669027142,None,1104.0599669027142,None,1104.0599669027142,None,5s,1105.8852089047432,1106.886929151602,1106.878554315772,None,1107.8779605948366,1108.1205360968597,1107.8779605948366,1108.1205360968597,1108.1115692546591,None,1108.1115692546591,None,space,0.44399744691327214,1108.1115692546591,None,0.2361,1108.6857977886684,None,,,,,,,DEC026,001,2022_Dec_06_1613,2-25_cond_decay_EYE-try,2021.2.3,119.82529801643402,
right,1.0,0.75,0,1,0,1,0,3,0,3,0,0,1,1,4,,,,,,,,,,,,,,,5s,1109.7439495068975,1110.7455378766172,1110.7370240897872,None,1111.7369904518127,1115.3536267708987,1111.7369904518127,1115.3536267708987,1115.3449959675781,None,1115.3449959675781,None,space,0.3258878020569682,1115.3449959675781,None,3.6119,1115.7953899819404,None,,,,,,,DEC026,001,2022_Dec_06_1613,2-25_cond_decay_EYE-try,2021.2.3,119.82529801643402,
left,1.0,0.75,1,1,0,1,0,3,0,3,0,0,2,2,0,,,,,,,,,,,,,,,5s,1116.853924155701,1117.8534909896553,1117.844841314014,None,1118.8456967379898,1119.2533031958155,1118.8456967379898,1119.2533031958155,1119.2533031958155,None,1119.2533031958155,None,space,0.7756934962235391,1119.2533031958155,None,0.4027,1120.1533487467095,None,,,,,,,DEC026,001,2022_Dec_06_1613,2-25_cond_decay_EYE-try,2021.2.3,119.82529801643402,
right,0.75,1.0,1,1,0,1,0,3,0,3,0,0,3,3,5,,,,,,,,,,,,,,,5s,1121.2184903100133,1122.2200768357143,1122.2030833787285,None,1123.2036727326922,1126.0453006490134,1123.2036727326922,1126.0453006490134,1126.0453006490134,None,1126.0453006490134,None,space,0.3834780449979007,1126.0453006490134,None,2.8378,1126.5523064057343,None,,,,,,,DEC026,001,2022_Dec_06_1613,2-25_cond_decay_EYE-try,2021.2.3,119.82529801643402,
left,0.75,1.0,0,1,0,1,0,3,0,3,0,0,4,4,7,,,,,,,,,,,,,,,5s,1127.6190376356244,1128.62074256083,1128.6116550536826,None,1129.612002696842,1132.5203537396155,1129.612002696842,1132.5203537396155,1132.5203537396155,None,1132.5203537396155,None,space,0.44439972983673215,1132.5203537396155,None,2.9088,1133.093748157844,None,,,,,,,DEC026,001,2022_Dec_06_1613,2-25_cond_decay_EYE-try,2021.2.3,119.82529801643402,
right,1.0,0.75,0,1,0,1,0,3,0,3,0,0,5,5,6,,,,,,,,,,,,,,,5s,1134.1524860397913,1135.1535230637528,1135.1455264296383,None,1136.1453985576518,1137.8786923876032,1136.1453985576518,1137.8786923876032,1137.8786923876032,None,1137.8786923876032,None,space,0.40835902793332934,1137.8786923876032,None,1.7325,1138.412282970734,None,,,,,,,DEC026,001,2022_Dec_06_1613,2-25_cond_decay_EYE-try,2021.2.3,119.82529801643402,
right,1.0,0.75,0,1,0,1,0,3,0,3,0,0,6,6,9,,,,,,,,,,,,,,,5s,1139.4694758038968,1140.4705514498055,1140.4624730776995,None,1141.4622742808424,1144.0458207167685,1141.4622742808424,1144.0458207167685,1144.0368891935796,None,1144.0368891935796,None,space,0.39244565507397056,1144.0368891935796,None,2.5799,1144.5537517066114,None,,,,,,,DEC026,001,2022_Dec_06_1613,2-25_cond_decay_EYE-try,2021.2.3,119.82529801643402,
left,0.75,1.0,0,1,0,1,0,3,0,3,0,0,7,7,1,,,,,,,,,,,,,,,5s,1145.6194084319286,1146.620517442003,1146.612687701825,None,1147.6117886817083,1149.1456322255544,1147.6117886817083,1149.1456322255544,1149.1456322255544,None,1149.1456322255544,None,None,,1149.1456322255544,None,1.5319,1150.2688901377842,None,,,,,,,DEC026,001,2022_Dec_06_1613,2-25_cond_decay_EYE-try,2021.2.3,119.82529801643402,
left,0.75,1.0,0,1,0,1,0,3,0,3,0,0,8,8,2,,,,,,,,,,,,,,,5s,1151.3279544939287,1152.3283955259249,1152.3200914529152,None,1153.3201546077617,1158.0790342818946,1153.3201546077617,1158.0790342818946,1158.0790342818946,None,1158.0790342818946,None,space,0.3028189749456942,1158.0790342818946,None,4.7586,1158.5109435496852,None,,,,,,,DEC026,001,2022_Dec_06_1613,2-25_cond_decay_EYE-try,2021.2.3,119.82529801643402,
right,1.0,0.75,0,1,0,1,0,3,0,3,0,0,9,9,8,,,,,,,,,,,,,,,5s,1159.5692019509152,1160.5707337399945,1160.5539472489618,None,1161.553691226989,1162.5951538188383,1161.553691226989,1162.5951538188383,1162.5951538188383,None,1162.5951538188383,None,space,0.459374793805182,1162.5951538188383,None,1.0404,1163.1860043336637,None,,,,,,,DEC026,001,2022_Dec_06_1613,2-25_cond_decay_EYE-try,2021.2.3,119.82529801643402,
left,1.0,0.75,1,1,0,1,0,3,0,3,0,1,0,10,0,,,,,,,,,,,,,,,5s,1164.244202867616,1165.2457864037715,1165.2373869908042,None,1166.2371234609745,1166.70377223799,1166.2371234609745,1166.70377223799,1166.6961126578972,None,1166.6961126578972,None,space,0.4183421591296792,1166.6961126578972,None,0.4626,1167.2443058216013,None,,,,,,,DEC026,001,2022_Dec_06_1613,2-25_cond_decay_EYE-try,2021.2.3,119.82529801643402,
left,0.75,1.0,0,1,0,1,0,3,0,3,0,1,1,11,3,,,,,,,,,,,,,,,5s,1168.2946012937464,1169.2951653539203,1169.287687625736,None,1170.2870340449736,1170.6202420569025,1170.2870340449736,1170.6202420569025,1170.6202420569025,None,1170.6202420569025,None,space,0.36972707882523537,1170.6202420569025,None,0.3323,1171.1197769846767,None,,,,,,,DEC026,001,2022_Dec_06_1613,2-25_cond_decay_EYE-try,2021.2.3,119.82529801643402,
right,1.0,0.75,0,1,0,1,0,3,0,3,0,1,2,12,6,,,,,,,,,,,,,,,5s,1172.1697824755684,1173.171230633743,1173.1628324305639,None,1174.1621460369788,1174.5709549589083,1174.1621460369788,1174.5709549589083,1174.5709549589083,None,1174.5709549589083,None,space,0.38590299524366856,1174.5709549589083,None,0.406,1175.0865608640015,None,,,,,,,DEC026,001,2022_Dec_06_1613,2-25_cond_decay_EYE-try,2021.2.3,119.82529801643402,
right,1.0,0.75,0,1,0,1,0,3,0,3,0,1,3,13,4,,,,,,,,,,,,,,,5s,1176.1357761099935,1177.1370883896016,1177.1286611226387,None,1178.1296927747317,1178.6876246188767,1178.1296927747317,1178.6876246188767,1178.6788365310058,None,1178.6788365310058,None,space,0.33432948868721724,1178.6788365310058,None,0.5511,1179.1447235005908,None,,,,,,,DEC026,001,2022_Dec_06_1613,2-25_cond_decay_EYE-try,2021.2.3,119.82529801643402,
left,0.75,1.0,0,1,0,1,0,3,0,3,0,1,4,14,7,,,,,,,,,,,,,,,5s,1180.1958833718672,1181.1959227719344,1181.1872685425915,None,1182.1876828819513,1182.6790788215585,1182.1876828819513,1182.6790788215585,1182.6790788215585,None,1182.6790788215585,None,space,0.4192291689105332,1182.6790788215585,None,0.4898,1183.2284873998724,None,,,,,,,DEC026,001,2022_Dec_06_1613,2-25_cond_decay_EYE-try,2021.2.3,119.82529801643402,
right,1.0,0.75,0,1,0,1,0,3,0,3,0,1,5,15,8,,,,,,,,,,,,,,,5s,1184.286058594007,1185.28719140077,1185.2789084166288,None,1186.2788488427177,1189.195493971929,1186.2788488427177,1189.195493971929,1189.187649994623,None,1189.187649994623,None,space,0.42501823185011744,1189.187649994623,None,2.9144,1189.7372790058143,None,,,,,,,DEC026,001,2022_Dec_06_1613,2-25_cond_decay_EYE-try,2021.2.3,119.82529801643402,
left,0.75,1.0,0,1,0,1,0,3,0,3,0,1,6,16,2,,,,,,,,,,,,,,,5s,1190.8029180895537,1191.8039261805825,1191.787365004886,None,1192.7880153688602,1194.0462047937326,1192.7880153688602,1194.0462047937326,1194.0462047937326,None,1194.0462047937326,None,space,0.3589065717533231,1194.0462047937326,None,1.2567,1194.5293574095704,None,,,,,,,DEC026,001,2022_Dec_06_1613,2-25_cond_decay_EYE-try,2021.2.3,119.82529801643402,
right,0.75,1.0,1,1,0,1,0,3,0,3,0,1,7,17,5,,,,,,,,,,,,,,,5s,1195.5948540987447,1196.5959181338549,1196.5878304126672,None,1197.58819913771,1200.9627237748355,1197.58819913771,1200.9627237748355,1200.9539058785886,None,1200.9539058785886,None,space,0.4928059559315443,1200.9539058785886,None,3.3689,1201.5780332069844,None,,,,,,,DEC026,001,2022_Dec_06_1613,2-25_cond_decay_EYE-try,2021.2.3,119.82529801643402,
left,0.75,1.0,0,1,0,1,0,3,0,3,0,1,8,18,1,,,,,,,,,,,,,,,5s,1202.636357315816,1203.6378988148645,1203.6297229137272,None,1204.629752210807,1209.6296724937856,1204.629752210807,1209.6296724937856,1209.6211476479657,None,1209.6211476479657,None,space,0.3444851730018854,1209.6211476479657,None,4.9941,1210.0950849605724,None,,,,,,,DEC026,001,2022_Dec_06_1613,2-25_cond_decay_EYE-try,2021.2.3,119.82529801643402,
right,1.0,0.75,0,1,0,1,0,3,0,3,0,1,9,19,9,,,,,,,,,,,,,,,5s,1211.1527681136504,1212.1542850849219,1212.1457232469693,None,1213.1464412226342,1216.2716195606627,1213.1464412226342,1216.2716195606627,1216.2629877026193,None,1216.2629877026193,None,space,0.3425936568528414,1216.2629877026193,None,3.1207,1216.7370622456074,None,,,,,,,DEC026,001,2022_Dec_06_1613,2-25_cond_decay_EYE-try,2021.2.3,119.82529801643402,
,,,,1,0,1,0,3,0,3,0,,,,,,,,,,,,,,,,,,,,,,,,,,,,,,,,,,,,,,,,,,,,,DEC026,001,2022_Dec_06_1613,2-25_cond_decay_EYE-try,2021.2.3,119.82529801643402,
,,,,1,0,1,0,,,,,,,,,,,,,,,,,,,,,,,,,,,,,,,,,,,,,,,,,,,1217.6277821748517,None,1217.6277821748517,None,1217.6277821748517,None,DEC026,001,2022_Dec_06_1613,2-25_cond_decay_EYE-try,2021.2.3,119.82529801643402,
right,0.75,1.0,1,2,0,2,0,0,0,0,0,0,0,0,9,,,,,,,,,1222.6285197706893,None,1222.6285197706893,None,1222.6285197706893,None,3s,1226.736460249871,1227.7382670119405,1227.7216134988703,None,1228.7210748489015,1229.5212640818208,1228.7210748489015,1229.5212640818208,1229.5212640818208,None,1229.5212640818208,None,space,0.38615142507478595,1229.5212640818208,None,0.7941,1230.0366404945962,None,,,,,,,DEC026,001,2022_Dec_06_1613,2-25_cond_decay_EYE-try,2021.2.3,119.82529801643402,
right,0.75,1.0,1,2,0,2,0,0,0,0,0,0,1,1,8,,,,,,,,,,,,,,,3s,1231.0953973867,1232.0964189046063,1232.088172272779,None,1233.0793622396886,1235.1802067765966,1233.0793622396886,1235.1802067765966,1235.1802067765966,None,1235.1802067765966,None,space,0.42469516582787037,1235.1802067765966,None,2.0945,1235.729636510834,None,,,,,,,DEC026,001,2022_Dec_06_1613,2-25_cond_decay_EYE-try,2021.2.3,119.82529801643402,
left,0.75,1.0,0,2,0,2,0,0,0,0,0,0,2,2,5,,,,,,,,,,,,,,,3s,1236.7876267665997,1237.7877892446704,1237.779575822875,None,1238.7796771777794,1240.3378617577255,1238.7796771777794,1240.3378617577255,1240.3378617577255,None,1240.3378617577255,None,space,0.35254975128918886,1240.3378617577255,None,1.5578,1240.8205357328989,None,,,,,,,DEC026,001,2022_Dec_06_1613,2-25_cond_decay_EYE-try,2021.2.3,119.82529801643402,
right,1.0,0.75,0,2,0,2,0,0,0,0,0,0,3,3,1,,,,,,,,,,,,,,,3s,1241.8784219766967,1242.8793022870086,1242.8713223207742,None,1243.8712421907112,1246.7214441238903,1243.8712421907112,1246.7214441238903,1246.713731896598,None,1246.713731896598,None,space,0.3687395039014518,1246.713731896598,None,2.8426,1247.2120777876116,None,,,,,,,DEC026,001,2022_Dec_06_1613,2-25_cond_decay_EYE-try,2021.2.3,119.82529801643402,
left,0.75,1.0,0,2,0,2,0,0,0,0,0,0,4,4,0,,,,,,,,,,,,,,,3s,1248.2615485228598,1249.2632189807482,1249.2549230325967,None,1250.2551745357923,1251.1633744779974,1250.2551745357923,1251.1633744779974,1251.1633744779974,None,1251.1633744779974,None,space,0.466782049741596,1251.1633744779974,None,0.9063,1251.7551813959144,None,,,,,,,DEC026,001,2022_Dec_06_1613,2-25_cond_decay_EYE-try,2021.2.3,119.82529801643402,
left,0.75,1.0,0,2,0,2,0,0,0,0,0,0,5,5,4,,,,,,,,,,,,,,,3s,1252.8119636676274,1253.8133019148372,1253.8050445797853,None,1254.8051876276731,1256.6379901249893,1254.8051876276731,1256.6379901249893,1256.6301016607322,None,1256.6301016607322,None,space,0.4359179646708071,1256.6301016607322,None,1.8271,1257.1948888958432,None,,,,,,,DEC026,001,2022_Dec_06_1613,2-25_cond_decay_EYE-try,2021.2.3,119.82529801643402,
right,1.0,0.75,0,2,0,2,0,0,0,0,0,0,6,6,7,,,,,,,,,,,,,,,3s,1258.253824912943,1259.2550788717344,1259.2465822068043,None,1260.2467965809628,1260.6300328467041,1260.2467965809628,1260.6300328467041,1260.621603072621,None,1260.621603072621,None,space,0.43361387122422457,1260.621603072621,None,0.3828,1261.1792308166623,None,,,,,,,DEC026,001,2022_Dec_06_1613,2-25_cond_decay_EYE-try,2021.2.3,119.82529801643402,
right,1.0,0.75,0,2,0,2,0,0,0,0,0,0,7,7,3,,,,,,,,,,,,,,,3s,1262.237635533791,1263.2386468769982,1263.2301423749886,None,1264.2307134289294,1264.8713240497746,1264.2307134289294,1264.8713240497746,1264.8713240497746,None,1264.8713240497746,None,space,0.342578056268394,1264.8713240497746,None,0.6385,1265.3383372356184,None,,,,,,,DEC026,001,2022_Dec_06_1613,2-25_cond_decay_EYE-try,2021.2.3,119.82529801643402,
left,0.75,1.0,0,2,0,2,0,0,0,0,0,0,8,8,2,,,,,,,,,,,,,,,3s,1266.404164772015,1267.4051233115606,1267.396684714593,None,1268.3968107597902,1271.047253747005,1268.3968107597902,1271.047253747005,1271.0385712278076,None,1271.0385712278076,None,space,0.3749663061462343,1271.0385712278076,None,2.643,1271.5383612755686,None,,,,,,,DEC026,001,2022_Dec_06_1613,2-25_cond_decay_EYE-try,2021.2.3,119.82529801643402,
left,1.0,0.75,1,2,0,2,0,0,0,0,0,0,9,9,6,,,,,,,,,,,,,,,3s,1272.5972382756881,1273.597055405844,1273.5888937599957,None,1274.588180173654,1275.2632830915973,1274.588180173654,1275.2632830915973,1275.2632830915973,None,1275.2632830915973,None,space,0.5025735348463058,1275.2632830915973,None,0.6746,1275.8959781946614,None,,,,,,,DEC026,001,2022_Dec_06_1613,2-25_cond_decay_EYE-try,2021.2.3,119.82529801643402,
right,1.0,0.75,0,2,0,2,0,0,0,0,0,1,0,10,1,,,,,,,,,,,,,,,3s,1276.9537290069275,1277.9552129027434,1277.9387001027353,None,1278.9386956458911,1279.8308025747538,1278.9386956458911,1279.8308025747538,1279.8308025747538,None,1279.8308025747538,None,space,0.5333872521296144,1279.8308025747538,None,0.8908,1280.4887286908925,None,,,,,,,DEC026,001,2022_Dec_06_1613,2-25_cond_decay_EYE-try,2021.2.3,119.82529801643402,
left,0.75,1.0,0,2,0,2,0,0,0,0,0,1,1,11,4,,,,,,,,,,,,,,,3s,1281.5543608115986,1282.555457845796,1282.5469938069582,None,1283.5468110158108,1284.255679441616,1283.5468110158108,1284.255679441616,1284.255679441616,None,1284.255679441616,None,space,0.3999328068457544,1284.255679441616,None,0.7057,1284.7808217466809,None,,,,,,,DEC026,001,2022_Dec_06_1613,2-25_cond_decay_EYE-try,2021.2.3,119.82529801643402,
left,1.0,0.75,1,2,0,2,0,0,0,0,0,1,2,12,6,,,,,,,,,,,,,,,3s,1285.8372833565809,1286.838303675875,1286.8308768398128,None,1287.830585788004,1290.2217722148634,1287.830585788004,1290.2217722148634,1290.2217722148634,None,1290.2217722148634,None,space,0.36704403115436435,1290.2217722148634,None,2.3899,1290.7136280299164,None,,,,,,,DEC026,001,2022_Dec_06_1613,2-25_cond_decay_EYE-try,2021.2.3,119.82529801643402,
right,1.0,0.75,0,2,0,2,0,0,0,0,0,1,3,13,3,,,,,,,,,,,,,,,3s,1291.77967259055,1292.7806613277644,1292.772388104815,None,1293.7715716050006,1295.4974416047335,1293.7715716050006,1295.4974416047335,1295.4974416047335,None,1295.4974416047335,None,space,0.44429804058745503,1295.4974416047335,None,1.723,1296.0707506677136,None,,,,,,,DEC026,001,2022_Dec_06_1613,2-25_cond_decay_EYE-try,2021.2.3,119.82529801643402,
left,0.75,1.0,0,2,0,2,0,0,0,0,0,1,4,14,2,,,,,,,,,,,,,,,3s,1297.1205257186666,1298.1216773628257,1298.1141199045815,None,1299.1136659439653,1300.1138644469902,1299.1136659439653,1300.1138644469902,1300.1050609559752,None,1300.1050609559752,None,space,0.4675569930113852,1300.1050609559752,None,0.9978,1300.7040139748715,None,,,,,,,DEC026,001,2022_Dec_06_1613,2-25_cond_decay_EYE-try,2021.2.3,119.82529801643402,
left,0.75,1.0,0,2,0,2,0,0,0,0,0,1,5,15,5,,,,,,,,,,,,,,,3s,1301.754252386745,1302.755676639732,1302.7472993019037,None,1303.7470962489024,1304.5887381816283,1303.7470962489024,1304.5887381816283,1304.5887381816283,None,1304.5887381816283,None,space,0.46146212238818407,1304.5887381816283,None,0.8392,1305.1792811066844,None,,,,,,,DEC026,001,2022_Dec_06_1613,2-25_cond_decay_EYE-try,2021.2.3,119.82529801643402,
right,1.0,0.75,0,2,0,2,0,0,0,0,0,1,6,16,7,,,,,,,,,,,,,,,3s,1306.2377538839355,1307.2392336218618,1307.2308950405568,None,1308.2300301999785,1308.5141560370103,1308.2300301999785,1308.5141560370103,1308.505649084691,None,1308.505649084691,None,space,0.585890572052449,1308.505649084691,None,0.2793,1309.2211937918328,None,,,,,,,DEC026,001,2022_Dec_06_1613,2-25_cond_decay_EYE-try,2021.2.3,119.82529801643402,
right,0.75,1.0,1,2,0,2,0,0,0,0,0,1,7,17,8,,,,,,,,,,,,,,,3s,1310.2719126618467,1311.2718356787227,1311.2637356128544,None,1312.2636609766632,1312.8968992335722,1312.2636609766632,1312.8968992335722,1312.8893264597282,None,1312.8893264597282,None,space,0.40233592689037323,1312.8893264597282,None,0.6266,1313.4212923548184,None,,,,,,,DEC026,001,2022_Dec_06_1613,2-25_cond_decay_EYE-try,2021.2.3,119.82529801643402,
left,0.75,1.0,0,2,0,2,0,0,0,0,0,1,8,18,0,,,,,,,,,,,,,,,3s,1314.4726994629018,1315.4721731729805,1315.4639696646482,None,1316.463702308014,1316.689252496697,1316.463702308014,1316.689252496697,1316.689252496697,None,1316.689252496697,None,None,,1316.689252496697,None,0.2206,1317.8133257557638,None,,,,,,,DEC026,001,2022_Dec_06_1613,2-25_cond_decay_EYE-try,2021.2.3,119.82529801643402,
right,1.0,0.75,0,2,0,2,0,0,0,0,0,1,9,19,9,,,,,,,,,,,,,,,3s,1318.8715714099817,1319.8722196817398,1319.8638914446346,None,1320.8634907486849,1321.5724216019735,1320.8634907486849,1321.5724216019735,1321.5639328318648,None,1321.5639328318648,None,space,0.5530622871592641,1321.5639328318648,None,0.7059,1322.2462916788645,None,,,,,,,DEC026,001,2022_Dec_06_1613,2-25_cond_decay_EYE-try,2021.2.3,119.82529801643402,
,,,,2,0,2,0,0,0,0,0,,,,,,,,,,,,,,,,,,,,,,,,,,,,,,,,,,,,,,,,,,,,,DEC026,001,2022_Dec_06_1613,2-25_cond_decay_EYE-try,2021.2.3,119.82529801643402,
left,1.0,0.75,1,2,0,2,0,1,0,1,0,0,0,0,8,,,,,,,,,1323.1376731679775,None,1323.1376731679775,None,1323.1376731679775,None,5s,1324.7043712600134,1325.7060619099066,1325.6892397478223,None,1326.6891622189432,1329.4643383808434,1326.6891622189432,1329.4643383808434,1329.4643383808434,None,1329.4643383808434,None,space,0.3774322113022208,1329.4643383808434,None,2.7746,1329.9711796347983,None,,,,,,,DEC026,001,2022_Dec_06_1613,2-25_cond_decay_EYE-try,2021.2.3,119.82529801643402,
left,0.75,1.0,0,2,0,2,0,1,0,1,0,0,1,1,9,,,,,,,,,,,,,,,5s,1331.0213609458879,1332.0223476118408,1332.013994148001,None,1333.0141931208782,1334.4062923188321,1333.0141931208782,1334.4062923188321,1334.397411558777,None,1334.397411558777,None,space,0.3443422792479396,1334.397411558777,None,1.3868,1334.8711519339122,None,,,,,,,DEC026,001,2022_Dec_06_1613,2-25_cond_decay_EYE-try,2021.2.3,119.82529801643402,
right,1.0,0.75,0,2,0,2,0,1,0,1,0,0,2,2,2,,,,,,,,,,,,,,,5s,1335.9211561866105,1336.9219439439476,1336.9058953328058,None,1337.906170929782,1342.538883718662,1337.906170929782,1342.538883718662,1342.538883718662,None,1342.538883718662,None,None,,1342.538883718662,None,4.6313,1343.662562825717,None,,,,,,,DEC026,001,2022_Dec_06_1613,2-25_cond_decay_EYE-try,2021.2.3,119.82529801643402,
left,0.75,1.0,0,2,0,2,0,1,0,1,0,0,3,3,4,,,,,,,,,,,,,,,5s,1344.72133695893,1345.7224476928823,1345.714293019846,None,1346.7143742158078,1349.0981415635906,1346.7143742158078,1349.0981415635906,1349.0897043379955,None,1349.0897043379955,None,space,0.4189924281090498,1349.0897043379955,None,2.3765,1349.6378957876004,None,,,,,,,DEC026,001,2022_Dec_06_1613,2-25_cond_decay_EYE-try,2021.2.3,119.82529801643402,
right,1.0,0.75,0,2,0,2,0,1,0,1,0,0,4,4,1,,,,,,,,,,,,,,,5s,1350.6960801649839,1351.6980118239298,1351.6888738228008,None,1352.6892810049467,1355.838947237935,1352.6892810049467,1355.838947237935,1355.8313016179018,None,1355.8313016179018,None,space,0.3664841055870056,1355.8313016179018,None,3.1462,1356.322583348956,None,,,,,,,DEC026,001,2022_Dec_06_1613,2-25_cond_decay_EYE-try,2021.2.3,119.82529801643402,
left,0.75,1.0,0,2,0,2,0,1,0,1,0,0,5,5,3,,,,,,,,,,,,,,,5s,1357.3881501979195,1358.3890596060082,1358.3810761347413,None,1359.381510088686,1363.7145831836388,1359.381510088686,1363.7145831836388,1363.7061087358743,None,1363.7061087358743,None,space,0.344394211191684,1363.7061087358743,None,4.3269,1364.1803147918545,None,,,,,,,DEC026,001,2022_Dec_06_1613,2-25_cond_decay_EYE-try,2021.2.3,119.82529801643402,
right,0.75,1.0,1,2,0,2,0,1,0,1,0,0,6,6,7,,,,,,,,,,,,,,,5s,1365.2379400529899,1366.2400655536912,1366.2225771178491,None,1367.2225922415964,1371.7311991145834,1367.2225922415964,1371.7311991145834,1371.7311991145834,None,1371.7311991145834,None,space,0.3365645697340369,1371.7311991145834,None,4.507,1372.1969944648445,None,,,,,,,DEC026,001,2022_Dec_06_1613,2-25_cond_decay_EYE-try,2021.2.3,119.82529801643402,
left,1.0,0.75,1,2,0,2,0,1,0,1,0,0,7,7,0,,,,,,,,,,,,,,,5s,1373.2465250026435,1374.2479422306642,1374.2316041118465,None,1375.2316837157123,1379.7228089799173,1375.2316837157123,1379.7228089799173,1379.715102148708,None,1379.715102148708,None,space,0.5854668561369181,1379.715102148708,None,4.4844,1380.4304707515985,None,,,,,,,DEC026,001,2022_Dec_06_1613,2-25_cond_decay_EYE-try,2021.2.3,119.82529801643402,
left,0.75,1.0,0,2,0,2,0,1,0,1,0,0,8,8,6,,,,,,,,,,,,,,,5s,1381.480227731634,1382.4817616068758,1382.4734457805753,None,1383.4734385637566,1383.8398908688687,1383.4734385637566,1383.8398908688687,1383.8398908688687,None,1383.8398908688687,None,space,0.6526550007984042,1383.8398908688687,None,0.3656,1384.6216905359179,None,,,,,,,DEC026,001,2022_Dec_06_1613,2-25_cond_decay_EYE-try,2021.2.3,119.82529801643402,
right,1.0,0.75,0,2,0,2,0,1,0,1,0,0,9,9,5,,,,,,,,,,,,,,,5s,1385.6796959349886,1386.680951364804,1386.673357050866,None,1387.6735505010001,1390.5229088747874,1387.6735505010001,1390.5229088747874,1390.5229088747874,None,1390.5229088747874,None,space,0.4111901558935642,1390.5229088747874,None,2.8488,1391.0635081515647,None,,,,,,,DEC026,001,2022_Dec_06_1613,2-25_cond_decay_EYE-try,2021.2.3,119.82529801643402,
left,0.75,1.0,0,2,0,2,0,1,0,1,0,1,0,10,4,,,,,,,,,,,,,,,5s,1392.1149721019901,1393.1143751838244,1393.1061334758997,None,1394.1064563789405,1398.131193549838,1394.1064563789405,1398.131193549838,1398.131193549838,None,1398.131193549838,None,space,0.3363049738109112,1398.131193549838,None,4.0248,1398.597350394819,None,,,,,,,DEC026,001,2022_Dec_06_1613,2-25_cond_decay_EYE-try,2021.2.3,119.82529801643402,
left,0.75,1.0,0,2,0,2,0,1,0,1,0,1,1,11,6,,,,,,,,,,,,,,,5s,1399.6478591826744,1400.648525393568,1400.639631190803,None,1401.6396345789544,1405.8816277817823,1401.6396345789544,1405.8816277817823,1405.8816277817823,None,1405.8816277817823,None,space,0.3688438991084695,1405.8816277817823,None,4.2367,1406.3803773368709,None,,,,,,,DEC026,001,2022_Dec_06_1613,2-25_cond_decay_EYE-try,2021.2.3,119.82529801643402,
left,1.0,0.75,1,2,0,2,0,1,0,1,0,1,2,12,0,,,,,,,,,,,,,,,5s,1407.4307486368343,1408.4315375369042,1408.423089667689,None,1409.4232656708919,1412.0484691918828,1409.4232656708919,1412.0484691918828,1412.0484691918828,None,1412.0484691918828,None,space,0.6191857820376754,1412.0484691918828,None,2.6196,1412.7968857665546,None,,,,,,,DEC026,001,2022_Dec_06_1613,2-25_cond_decay_EYE-try,2021.2.3,119.82529801643402,
right,1.0,0.75,0,2,0,2,0,1,0,1,0,1,3,13,8,,,,,,,,,,,,,,,5s,1413.855320920702,1414.8571089678444,1414.8486945996992,None,1415.8479923009872,1417.4730304637924,1415.8479923009872,1417.4730304637924,1417.4730304637924,None,1417.4730304637924,None,space,0.35054260585457087,1417.4730304637924,None,1.6262,1417.9484045365825,None,,,,,,,DEC026,001,2022_Dec_06_1613,2-25_cond_decay_EYE-try,2021.2.3,119.82529801643402,
left,0.75,1.0,0,2,0,2,0,1,0,1,0,1,4,14,9,,,,,,,,,,,,,,,5s,1419.0138024888001,1420.0152323967777,1420.0064486349002,None,1421.0068733887747,1421.4153406457044,1421.0068733887747,1421.4153406457044,1421.4064651168883,1422.4073386699893,1421.4064651168883,1422.4073386699893,None,,1421.4064651168883,1422.4073386699893,0.4018,1422.538846891839,None,,,,,,,DEC026,001,2022_Dec_06_1613,2-25_cond_decay_EYE-try,2021.2.3,119.82529801643402,
left,0.75,1.0,0,2,0,2,0,1,0,1,0,1,5,15,3,,,,,,,,,,,,,,,5s,1423.5886459369212,1424.5904155466706,1424.582359386608,None,1425.5822803615592,1425.9318051598966,1425.5822803615592,1425.9318051598966,1425.9231219165958,None,1425.9231219165958,None,space,0.46797379292547703,1425.9231219165958,None,0.3448,1426.5221974477172,None,,,,,,,DEC026,001,2022_Dec_06_1613,2-25_cond_decay_EYE-try,2021.2.3,119.82529801643402,
right,1.0,0.75,0,2,0,2,0,1,0,1,0,1,6,16,2,,,,,,,,,,,,,,,5s,1427.5724248997867,1428.5732208648697,1428.5648654149845,None,1429.5650409846567,1430.056934215594,1429.5650409846567,1430.056934215594,1430.056934215594,None,1430.056934215594,None,space,0.28359429026022553,1430.056934215594,None,0.4913,1430.4647146975622,None,,,,,,,DEC026,001,2022_Dec_06_1613,2-25_cond_decay_EYE-try,2021.2.3,119.82529801643402,
right,1.0,0.75,0,2,0,2,0,1,0,1,0,1,7,17,5,,,,,,,,,,,,,,,5s,1431.5226078736596,1432.523122529965,1432.5150542259216,None,1433.5151407769881,1437.8824741356075,1433.5151407769881,1437.8824741356075,1437.873762855772,None,1437.873762855772,None,space,0.3088779407553375,1437.873762855772,None,4.3611,1438.3074952359311,None,,,,,,,DEC026,001,2022_Dec_06_1613,2-25_cond_decay_EYE-try,2021.2.3,119.82529801643402,
right,1.0,0.75,0,2,0,2,0,1,0,1,0,1,8,18,1,,,,,,,,,,,,,,,5s,1439.37187696388,1440.3739712149836,1440.3648845995776,None,1441.365415303968,1444.0906621809117,1441.365415303968,1444.0906621809117,1444.0819972516038,None,1444.0819972516038,None,space,0.31704237638041377,1444.0819972516038,None,2.7229,1444.5238246079534,None,,,,,,,DEC026,001,2022_Dec_06_1613,2-25_cond_decay_EYE-try,2021.2.3,119.82529801643402,
right,0.75,1.0,1,2,0,2,0,1,0,1,0,1,9,19,7,,,,,,,,,,,,,,,5s,1445.5802149157971,1446.5824823509902,1446.5740902638063,None,1447.573740416672,1447.7574926647358,1447.573740416672,1447.7574926647358,1447.748772176914,1448.7489910847507,1447.748772176914,1448.7489910847507,None,,1447.748772176914,1448.7489910847507,0.1792,1448.8807484759018,None,,,,,,,DEC026,001,2022_Dec_06_1613,2-25_cond_decay_EYE-try,2021.2.3,119.82529801643402,
,,,,2,0,2,0,1,0,1,0,,,,,,,,,,,,,,,,,,,,,,,,,,,,,,,,,,,,,,,,,,,,,DEC026,001,2022_Dec_06_1613,2-25_cond_decay_EYE-try,2021.2.3,119.82529801643402,
right,1.0,0.75,0,2,0,2,0,2,0,2,0,0,0,0,6,,,,,,,,,1449.7723350096494,None,1449.7723350096494,None,1449.7723350096494,None,1s,1453.0981593248434,1454.0984576479532,1454.0899330317043,None,1455.0898277228698,1455.265222508926,1455.0898277228698,1455.265222508926,1455.2575566698797,None,1455.2575566698797,None,space,0.2913701459765434,1455.2575566698797,None,0.1712,1455.680926373694,None,,,,,,,DEC026,001,2022_Dec_06_1613,2-25_cond_decay_EYE-try,2021.2.3,119.82529801643402,
left,0.75,1.0,0,2,0,2,0,2,0,2,0,0,1,1,1,,,,,,,,,,,,,,,1s,1456.739387972746,1457.7401480246335,1457.7318249265663,None,1458.7327001485974,1459.7151523646899,1458.7327001485974,1459.7151523646899,1459.7151523646899,None,1459.7151523646899,None,space,0.7273514159023762,1459.7151523646899,None,0.9786,1460.573128359858,None,,,,,,,DEC026,001,2022_Dec_06_1613,2-25_cond_decay_EYE-try,2021.2.3,119.82529801643402,
right,1.0,0.75,0,2,0,2,0,2,0,2,0,0,2,2,4,,,,,,,,,,,,,,,1s,1461.6308418386616,1462.6318139266223,1462.6237242897041,None,1463.6234162976034,1464.4823831738904,1463.6234162976034,1464.4823831738904,1464.4823831738904,None,1464.4823831738904,None,space,0.28375951386988163,1464.4823831738904,None,0.8542,1464.8906132387929,None,,,,,,,DEC026,001,2022_Dec_06_1613,2-25_cond_decay_EYE-try,2021.2.3,119.82529801643402,
left,0.75,1.0,0,2,0,2,0,2,0,2,0,0,3,3,8,,,,,,,,,,,,,,,1s,1465.955970868934,1466.9577528657392,1466.949395940639,None,1467.9493871508166,1468.3078362219967,1467.9493871508166,1468.3078362219967,1468.2990993307903,None,1468.2990993307903,None,space,0.31895842775702477,1468.2990993307903,None,0.354,1468.7479815627448,None,,,,,,,DEC026,001,2022_Dec_06_1613,2-25_cond_decay_EYE-try,2021.2.3,119.82529801643402,
left,0.75,1.0,0,2,0,2,0,2,0,2,0,0,4,4,0,,,,,,,,,,,,,,,1s,1469.7991826776415,1470.7988155009225,1470.790531822946,None,1471.7905587595887,1472.1319016437046,1471.7905587595887,1472.1319016437046,1472.1319016437046,None,1472.1319016437046,None,space,0.3024852331727743,1472.1319016437046,None,0.3393,1472.564391107764,None,,,,,,,DEC026,001,2022_Dec_06_1613,2-25_cond_decay_EYE-try,2021.2.3,119.82529801643402,
right,1.0,0.75,0,2,0,2,0,2,0,2,0,0,5,5,7,,,,,,,,,,,,,,,1s,1473.614250285551,1474.615854272619,1474.5985687589273,None,1475.5986148999073,1475.8827215656638,1475.5986148999073,1475.8827215656638,1475.8827215656638,None,1475.8827215656638,None,space,0.368798497132957,1475.8827215656638,None,0.2825,1476.3814065107144,None,,,,,,,DEC026,001,2022_Dec_06_1613,2-25_cond_decay_EYE-try,2021.2.3,119.82529801643402,
right,0.75,1.0,1,2,0,2,0,2,0,2,0,0,6,6,2,,,,,,,,,,,,,,,1s,1477.4328305847012,1478.4326948728412,1478.4235500548966,None,1479.4235236346722,1480.2155864769593,1479.4235236346722,1480.2155864769593,1480.2155864769593,None,1480.2155864769593,None,space,0.375565136782825,1480.2155864769593,None,0.7886,1480.714956631884,None,,,,,,,DEC026,001,2022_Dec_06_1613,2-25_cond_decay_EYE-try,2021.2.3,119.82529801643402,
left,0.75,1.0,0,2,0,2,0,2,0,2,0,0,7,7,5,,,,,,,,,,,,,,,1s,1481.7814998636022,1482.782253916841,1482.766000781674,None,1483.7659602379426,1484.0077739367262,1483.7659602379426,1484.0077739367262,1484.0077739367262,None,1484.0077739367262,None,space,0.49218692164868116,1484.0077739367262,None,0.2373,1484.6311524976045,None,,,,,,,DEC026,001,2022_Dec_06_1613,2-25_cond_decay_EYE-try,2021.2.3,119.82529801643402,
right,1.0,0.75,0,2,0,2,0,2,0,2,0,0,8,8,9,,,,,,,,,,,,,,,1s,1485.6894923029467,1486.6905227256939,1486.6823543156497,None,1487.682386864908,1488.382497771643,1487.682386864908,1488.382497771643,1488.3737783445977,None,1488.3737783445977,None,space,0.3344545839354396,1488.3737783445977,None,0.6964,1488.8320363219827,None,,,,,,,DEC026,001,2022_Dec_06_1613,2-25_cond_decay_EYE-try,2021.2.3,119.82529801643402,
right,1.0,0.75,0,2,0,2,0,2,0,2,0,0,9,9,3,,,,,,,,,,,,,,,1s,1489.889324518852,1490.8904874036089,1490.882431936916,None,1491.8825281215832,1492.0488735218532,1491.8825281215832,1492.0488735218532,1492.0412682145834,1493.04107500799,1492.0412682145834,1493.04107500799,None,,1492.0412682145834,1493.04107500799,0.1606,1493.1726918239146,None,,,,,,,DEC026,001,2022_Dec_06_1613,2-25_cond_decay_EYE-try,2021.2.3,119.82529801643402,
left,0.75,1.0,0,2,0,2,0,2,0,2,0,1,0,10,5,,,,,,,,,,,,,,,1s,1494.2246829546057,1495.2244798135944,1495.215933507774,None,1496.2154273865744,1497.0820653759874,1496.2154273865744,1497.0820653759874,1497.0820653759874,None,1497.0820653759874,None,None,,1497.0820653759874,None,0.8634,1498.1978086675517,None,,,,,,,DEC026,001,2022_Dec_06_1613,2-25_cond_decay_EYE-try,2021.2.3,119.82529801643402,
left,1.0,0.75,1,2,0,2,0,2,0,2,0,1,1,11,6,,,,,,,,,,,,,,,1s,1499.256375260651,1500.2574742869474,1500.2491222699173,None,1501.2491771648638,1501.7074960959144,1501.2491771648638,1501.7074960959144,1501.7074960959144,None,1501.7074960959144,None,space,0.25022262101992965,1501.7074960959144,None,0.4542,1502.0892888456583,None,,,,,,,DEC026,001,2022_Dec_06_1613,2-25_cond_decay_EYE-try,2021.2.3,119.82529801643402,
right,1.0,0.75,0,2,0,2,0,2,0,2,0,1,2,12,9,,,,,,,,,,,,,,,1s,1503.1413676720113,1504.1412676139735,1504.133061460685,None,1505.1330256937072,1505.991465721745,1505.1330256937072,1505.991465721745,1505.991465721745,None,1505.991465721745,None,space,0.269333949778229,1505.991465721745,None,0.8584,1506.3896068339236,None,,,,,,,DEC026,001,2022_Dec_06_1613,2-25_cond_decay_EYE-try,2021.2.3,119.82529801643402,
left,0.75,1.0,0,2,0,2,0,2,0,2,0,1,3,13,8,,,,,,,,,,,,,,,1s,1507.4412868106738,1508.4414987466298,1508.4332101675682,None,1509.4322785600089,1509.832839765586,1509.4322785600089,1509.832839765586,1509.832839765586,None,1509.832839765586,None,space,0.317306456156075,1509.832839765586,None,0.4002,1510.2740064775571,None,,,,,,,DEC026,001,2022_Dec_06_1613,2-25_cond_decay_EYE-try,2021.2.3,119.82529801643402,
left,0.75,1.0,0,2,0,2,0,2,0,2,0,1,4,14,1,,,,,,,,,,,,,,,1s,1511.3310199747793,1512.3330870498903,1512.3247156105936,None,1513.3249582536519,1513.7079880079255,1513.3249582536519,1513.7079880079255,1513.6999189597555,None,1513.6999189597555,None,space,0.3266305783763528,1513.6999189597555,None,0.3819,1514.156958098989,None,,,,,,,DEC026,001,2022_Dec_06_1613,2-25_cond_decay_EYE-try,2021.2.3,119.82529801643402,
left,0.75,1.0,0,2,0,2,0,2,0,2,0,1,5,15,0,,,,,,,,,,,,,,,1s,1515.2067888425663,1516.2073950096965,1516.1992011549883,None,1517.1994924577884,1517.5329358265735,1517.1994924577884,1517.5329358265735,1517.5240229056217,None,1517.5240229056217,None,space,0.3197727180086076,1517.5240229056217,None,0.3283,1517.973019424826,None,,,,,,,DEC026,001,2022_Dec_06_1613,2-25_cond_decay_EYE-try,2021.2.3,119.82529801643402,
right,1.0,0.75,0,2,0,2,0,2,0,2,0,1,6,16,4,,,,,,,,,,,,,,,1s,1519.0230139857158,1520.0247231796384,1520.0161047605798,None,1521.0160891637206,1521.3329919278622,1521.0160891637206,1521.3329919278622,1521.324413056951,None,1521.324413056951,None,space,0.303119664080441,1521.324413056951,None,0.3109,1521.7563984706067,None,,,,,,,DEC026,001,2022_Dec_06_1613,2-25_cond_decay_EYE-try,2021.2.3,119.82529801643402,
right,1.0,0.75,0,2,0,2,0,2,0,2,0,1,7,17,3,,,,,,,,,,,,,,,1s,1522.8063674475998,1523.8074537948705,1523.8000866016373,None,1524.799995467998,1525.6160728195682,1524.799995467998,1525.6160728195682,1525.6074571856298,None,1525.6074571856298,None,space,0.2781130690127611,1525.6074571856298,None,0.8116,1526.0147594995797,None,,,,,,,DEC026,001,2022_Dec_06_1613,2-25_cond_decay_EYE-try,2021.2.3,119.82529801643402,
right,1.0,0.75,0,2,0,2,0,2,0,2,0,1,8,18,7,,,,,,,,,,,,,,,1s,1527.0729103959166,1528.0740674519911,1528.0660043945536,None,1529.0659617297351,1530.0075960238464,1529.0659617297351,1530.0075960238464,1530.0075960238464,None,1530.0075960238464,None,space,0.2781438808888197,1530.0075960238464,None,0.9425,1530.4148414819501,None,,,,,,,DEC026,001,2022_Dec_06_1613,2-25_cond_decay_EYE-try,2021.2.3,119.82529801643402,
right,0.75,1.0,1,2,0,2,0,2,0,2,0,1,9,19,2,,,,,,,,,,,,,,,1s,1531.4646529909223,1532.4660548795946,1532.458031638991,None,1533.4575025727972,1533.749709657859,1533.4575025727972,1533.749709657859,1533.741109628696,None,1533.741109628696,None,space,0.42622141679748893,1533.741109628696,None,0.287,1534.2916128695942,None,,,,,,,DEC026,001,2022_Dec_06_1613,2-25_cond_decay_EYE-try,2021.2.3,119.82529801643402,
,,,,2,0,2,0,2,0,2,0,,,,,,,,,,,,,,,,,,,,,,,,,,,,,,,,,,,,,,,,,,,,,DEC026,001,2022_Dec_06_1613,2-25_cond_decay_EYE-try,2021.2.3,119.82529801643402,
right,1.0,0.75,0,2,0,2,0,3,0,3,0,0,0,0,7,,,,,,,,,1535.1899361456744,None,1535.1899361456744,None,1535.1899361456744,None,10s,1539.7980675869621,1540.799839197658,1540.7908151689917,None,1541.7917361976579,1546.5081893489696,1541.7917361976579,1546.5081893489696,1546.4996498716064,None,1546.4996498716064,None,space,0.38641307270154357,1546.4996498716064,None,4.713,1547.0151219596155,None,,,,,,,DEC026,001,2022_Dec_06_1613,2-25_cond_decay_EYE-try,2021.2.3,119.82529801643402,
right,1.0,0.75,0,2,0,2,0,3,0,3,0,0,1,1,5,,,,,,,,,,,,,,,10s,1548.0739686409943,1549.0746601349674,1549.0663687465712,None,1550.0669156848453,1552.941022692714,1550.0669156848453,1552.941022692714,1552.9335503578186,None,1552.9335503578186,None,space,0.36031905421987176,1552.9335503578186,None,2.8679,1553.4242120417766,None,,,,,,,DEC026,001,2022_Dec_06_1613,2-25_cond_decay_EYE-try,2021.2.3,119.82529801643402,
left,0.75,1.0,0,2,0,2,0,3,0,3,0,0,2,2,0,,,,,,,,,,,,,,,10s,1554.481479614973,1555.4827685509808,1555.4745566416532,None,1556.474715448916,1565.9004705408588,1556.474715448916,1565.9004705408588,1565.8917730618268,None,1565.8917730618268,None,space,0.3439353150315583,1565.8917730618268,None,9.4191,1566.365339813754,None,,,,,,,DEC026,001,2022_Dec_06_1613,2-25_cond_decay_EYE-try,2021.2.3,119.82529801643402,
left,1.0,0.75,1,2,0,2,0,3,0,3,0,0,3,3,2,,,,,,,,,,,,,,,10s,1567.4158070757985,1568.417309310753,1568.4084361507557,None,1569.4083751416765,1571.5165734556504,1569.4083751416765,1571.5165734556504,1571.5165734556504,None,1571.5165734556504,None,space,0.511069358792156,1571.5165734556504,None,2.1095,1572.1574660688639,None,,,,,,,DEC026,001,2022_Dec_06_1613,2-25_cond_decay_EYE-try,2021.2.3,119.82529801643402,
left,0.75,1.0,0,2,0,2,0,3,0,3,0,0,4,4,9,,,,,,,,,,,,,,,10s,1573.2067076065578,1574.208478460554,1574.1999755599536,None,1575.200044887606,1581.7584486217238,1575.200044887606,1581.7584486217238,1581.749683257658,None,1581.749683257658,None,space,0.3508965908549726,1581.749683257658,None,6.5516,1582.2254664036445,None,,,,,,,DEC026,001,2022_Dec_06_1613,2-25_cond_decay_EYE-try,2021.2.3,119.82529801643402,
right,1.0,0.75,0,2,0,2,0,3,0,3,0,0,5,5,3,,,,,,,,,,,,,,,10s,1583.2906998265535,1584.291600195691,1584.2833914128132,None,1585.283560656011,1589.2250123247504,1585.283560656011,1589.2250123247504,1589.2172228377312,1590.2163944905624,1589.2172228377312,1590.2163944905624,None,,1589.2172228377312,1590.2163944905624,3.9356,1590.349142214749,None,,,,,,,DEC026,001,2022_Dec_06_1613,2-25_cond_decay_EYE-try,2021.2.3,119.82529801643402,
left,0.75,1.0,0,2,0,2,0,3,0,3,0,0,6,6,4,,,,,,,,,,,,,,,10s,1591.3995757997036,1592.4004344088025,1592.3915029065683,None,1593.3917649346404,1599.4333120887168,1593.3917649346404,1599.4333120887168,1599.4333120887168,None,1599.4333120887168,None,space,0.5088632120750844,1599.4333120887168,None,6.0423,1600.0746296648867,None,,,,,,,DEC026,001,2022_Dec_06_1613,2-25_cond_decay_EYE-try,2021.2.3,119.82529801643402,
right,1.0,0.75,0,2,0,2,0,3,0,3,0,0,7,7,8,,,,,,,,,,,,,,,10s,1601.1328819938935,1602.134113845881,1602.1173466839828,None,1603.1167875295505,1604.675469107926,1603.1167875295505,1604.675469107926,1604.675469107926,None,1604.675469107926,None,space,0.3691734313033521,1604.675469107926,None,1.5555,1605.1742042917758,None,,,,,,,DEC026,001,2022_Dec_06_1613,2-25_cond_decay_EYE-try,2021.2.3,119.82529801643402,
right,1.0,0.75,0,2,0,2,0,3,0,3,0,0,8,8,6,,,,,,,,,,,,,,,10s,1606.2254100209102,1607.225141608622,1607.216954488773,None,1608.2170853586867,1617.1919631627388,1608.2170853586867,1617.1919631627388,1617.1919631627388,None,1617.1919631627388,None,space,0.3340682666748762,1617.1919631627388,None,8.9728,1617.650520760566,None,,,,,,,DEC026,001,2022_Dec_06_1613,2-25_cond_decay_EYE-try,2021.2.3,119.82529801643402,
left,0.75,1.0,0,2,0,2,0,3,0,3,0,0,9,9,1,,,,,,,,,,,,,,,10s,1618.7155364039354,1619.7170576597564,1619.708771663718,None,1620.7087748609483,1626.083833170589,1620.7087748609483,1626.083833170589,1626.0759827769361,None,1626.0759827769361,None,space,0.4167168359272182,1626.0759827769361,None,5.3704,1626.6173055148683,None,,,,,,,DEC026,001,2022_Dec_06_1613,2-25_cond_decay_EYE-try,2021.2.3,119.82529801643402,
left,0.75,1.0,0,2,0,2,0,3,0,3,0,1,0,10,1,,,,,,,,,,,,,,,10s,1627.6748178475536,1628.6759750177152,1628.6678103236482,None,1629.6676697167568,1631.6585198999383,1629.6676697167568,1631.6585198999383,1631.6505959969945,1632.6509029800072,1631.6505959969945,1632.6509029800072,None,,1631.6505959969945,1632.6509029800072,1.9894,1632.7826240309514,None,,,,,,,DEC026,001,2022_Dec_06_1613,2-25_cond_decay_EYE-try,2021.2.3,119.82529801643402,
left,1.0,0.75,1,2,0,2,0,3,0,3,0,1,1,11,2,,,,,,,,,,,,,,,10s,1633.8339730249718,1634.8338138279505,1634.8258919459768,None,1635.825825839769,1637.2587992358021,1635.825825839769,1637.2587992358021,1637.2587992358021,None,1637.2587992358021,None,space,0.4179624756798148,1637.2587992358021,None,1.4274,1637.8082023765892,None,,,,,,,DEC026,001,2022_Dec_06_1613,2-25_cond_decay_EYE-try,2021.2.3,119.82529801643402,
left,0.75,1.0,0,2,0,2,0,3,0,3,0,1,2,12,9,,,,,,,,,,,,,,,10s,1638.8576337248087,1639.8592337565497,1639.851082270965,None,1640.850608067587,1644.9178366628475,1640.850608067587,1644.9178366628475,1644.9089901149273,1645.9086246537045,1644.9089901149273,1645.9086246537045,None,,1644.9089901149273,1645.9086246537045,4.0601,1646.0409060786478,None,,,,,,,DEC026,001,2022_Dec_06_1613,2-25_cond_decay_EYE-try,2021.2.3,119.82529801643402,
right,1.0,0.75,0,2,0,2,0,3,0,3,0,1,3,13,5,,,,,,,,,,,,,,,10s,1647.0996453408152,1648.100803596899,1648.0927625116892,None,1649.0925702708773,1656.5758309066296,1649.0925702708773,1656.5758309066296,1656.5672360565513,None,1656.5672360565513,None,space,0.3262467170134187,1656.5672360565513,None,7.4784,1657.024503360968,None,,,,,,,DEC026,001,2022_Dec_06_1613,2-25_cond_decay_EYE-try,2021.2.3,119.82529801643402,
right,1.0,0.75,0,2,0,2,0,3,0,3,0,1,4,14,6,,,,,,,,,,,,,,,10s,1658.068037211895,1659.067256600596,1659.0597898736596,None,1660.0593292675912,1666.6591002349742,1660.0593292675912,1666.6591002349742,1666.6591002349742,None,1666.6591002349742,None,space,0.3526241360232234,1666.6591002349742,None,6.5966,1667.1413633166812,None,,,,,,,DEC026,001,2022_Dec_06_1613,2-25_cond_decay_EYE-try,2021.2.3,119.82529801643402,
left,0.75,1.0,0,2,0,2,0,3,0,3,0,1,5,15,0,,,,,,,,,,,,,,,10s,1668.1997237689793,1669.2014462798834,1669.1931140515953,None,1670.192337830551,1676.7259699958377,1670.192337830551,1676.7259699958377,1676.7259699958377,None,1676.7259699958377,None,space,0.41694531310349703,1676.7259699958377,None,6.5293,1677.2673913617618,None,,,,,,,DEC026,001,2022_Dec_06_1613,2-25_cond_decay_EYE-try,2021.2.3,119.82529801643402,
