attn_cue,left_ob,right_ob,congruent,runs.thisRepN,runs.thisTrialN,runs.thisN,runs.thisIndex,blocks.thisRepN,blocks.thisTrialN,blocks.thisN,blocks.thisIndex,trials.thisRepN,trials.thisTrialN,trials.thisN,trials.thisIndex,welcome.started,welcome.stopped,text_2.started,text_2.stopped,init_key_resp.keys,init_key_resp.rt,init_key_resp.started,init_key_resp.stopped,text_3.started,text_3.stopped,text_4.started,text_4.stopped,text_5.started,text_5.stopped,block_num,texter.started,texter.stopped,cross.started,cross.stopped,left_star.started,left_star.stopped,right_star.started,right_star.stopped,left_2.started,left_2.stopped,right_2.started,right_2.stopped,key_resp.keys,key_resp.rt,key_resp.started,key_resp.stopped,Rand Tim,text.started,text.stopped,end.started,end.stopped,text_6.started,text_6.stopped,text_7.started,text_7.stopped,participant,session,date,expName,psychopyVersion,frameRate,
,,,,,,,,,,,,,,,,126.18523908220232,None,126.18523908220232,None,space,2.4837736058980227,126.18523908220232,None,,,,,,,,,,,,,,,,,,,,,,,,,,,,,,,,,DEC015,001,2022_Oct_14_1520,2-25_cond_decay_EYE-try,2021.2.3,119.69974538067778,
right,1.0,0.75,0,0,0,0,0,0,0,0,0,0,0,0,5,,,,,,,,,128.68668662849814,None,128.68668662849814,None,128.68668662849814,None,5s,132.5435403669253,133.54310548305511,133.53500180318952,None,134.53482906520367,138.9938795287162,134.53482906520367,138.9938795287162,138.9938795287162,None,138.9938795287162,None,space,0.28541671205312014,138.9938795287162,None,4.4563,139.41887811385095,None,,,,,,,DEC015,001,2022_Oct_14_1520,2-25_cond_decay_EYE-try,2021.2.3,119.69974538067778,
right,1.0,0.75,0,0,0,0,0,0,0,0,0,0,1,1,3,,,,,,,,,,,,,,,5s,140.459745362401,141.46011083386838,141.45196813810617,None,142.451453814283,142.83517002128065,142.451453814283,142.83517002128065,142.82640349771827,None,142.82640349771827,None,space,0.6531713148579001,142.82640349771827,None,0.3779,143.60334454104304,None,,,,,,,DEC015,001,2022_Oct_14_1520,2-25_cond_decay_EYE-try,2021.2.3,119.69974538067778,
right,0.75,1.0,1,0,0,0,0,0,0,0,0,0,2,2,9,,,,,,,,,,,,,,,5s,144.65975906327367,145.65987722948194,145.65164921991527,None,146.65157776884735,150.30979086179286,146.65157776884735,150.30979086179286,150.30979086179286,None,150.30979086179286,None,space,0.30910858884453773,150.30979086179286,None,3.654,150.74370688945055,None,,,,,,,DEC015,001,2022_Oct_14_1520,2-25_cond_decay_EYE-try,2021.2.3,119.69974538067778,
right,1.0,0.75,0,0,0,0,0,0,0,0,0,0,3,3,6,,,,,,,,,,,,,,,5s,151.8020448088646,152.80179912876338,152.79348468407989,None,153.79384571500123,157.90237051062286,153.79384571500123,157.90237051062286,157.90237051062286,None,157.90237051062286,None,space,0.31654403172433376,157.90237051062286,None,4.1036,158.35233105067164,None,,,,,,,DEC015,001,2022_Oct_14_1520,2-25_cond_decay_EYE-try,2021.2.3,119.69974538067778,
left,0.75,1.0,0,0,0,0,0,0,0,0,0,0,4,4,1,,,,,,,,,,,,,,,5s,159.41069566830993,160.4109218949452,160.4017445584759,None,161.40270497836173,164.93538859300315,161.40270497836173,164.93538859300315,164.93538859300315,None,164.93538859300315,None,space,0.42705994937568903,164.93538859300315,None,3.532,165.49365018121898,None,,,,,,,DEC015,001,2022_Oct_14_1520,2-25_cond_decay_EYE-try,2021.2.3,119.69974538067778,
left,0.75,1.0,0,0,0,0,0,0,0,0,0,0,5,5,0,,,,,,,,,,,,,,,5s,166.54396022763103,167.5436485670507,167.53547052387148,None,168.5357425129041,172.30229526385665,168.5357425129041,172.30229526385665,172.30229526385665,None,172.30229526385665,None,space,0.2693204693496227,172.30229526385665,None,3.7653,172.70251797139645,None,,,,,,,DEC015,001,2022_Oct_14_1520,2-25_cond_decay_EYE-try,2021.2.3,119.69974538067778,
left,0.75,1.0,0,0,0,0,0,0,0,0,0,0,6,6,2,,,,,,,,,,,,,,,5s,173.75233227945864,174.75250800978392,174.74446902237833,None,175.7435065023601,178.89431629050523,175.7435065023601,178.89431629050523,178.89431629050523,None,178.89431629050523,None,space,0.2691571516916156,178.89431629050523,None,3.1485,179.2938597984612,None,,,,,,,DEC015,001,2022_Oct_14_1520,2-25_cond_decay_EYE-try,2021.2.3,119.69974538067778,
right,1.0,0.75,0,0,0,0,0,0,0,0,0,0,7,7,7,,,,,,,,,,,,,,,5s,180.34440901037306,181.34420162905008,181.33584078401327,None,182.3352420227602,184.34353397600353,182.3352420227602,184.34353397600353,184.35239087231457,None,184.35239087231457,None,space,0.29178020264953375,184.35239087231457,None,2.0092,184.76912286877632,None,,,,,,,DEC015,001,2022_Oct_14_1520,2-25_cond_decay_EYE-try,2021.2.3,119.69974538067778,
left,1.0,0.75,1,0,0,0,0,0,0,0,0,0,8,8,8,,,,,,,,,,,,,,,5s,185.82773351483047,186.82761739380658,186.8187231142074,None,187.81900020036846,190.76055269967765,187.81900020036846,190.76055269967765,190.75203634332865,None,190.75203634332865,None,space,0.3007378429174423,190.75203634332865,None,2.9399,191.1786688445136,None,,,,,,,DEC015,001,2022_Oct_14_1520,2-25_cond_decay_EYE-try,2021.2.3,119.69974538067778,
left,0.75,1.0,0,0,0,0,0,0,0,0,0,0,9,9,4,,,,,,,,,,,,,,,5s,192.235210028477,193.23613788373768,193.22686076536775,None,194.22687525022775,198.76094820071012,194.22687525022775,198.76094820071012,198.76094820071012,None,198.76094820071012,None,space,0.26703026983886957,198.76094820071012,None,4.5283,199.15265121869743,None,,,,,,,DEC015,001,2022_Oct_14_1520,2-25_cond_decay_EYE-try,2021.2.3,119.69974538067778,
left,0.75,1.0,0,0,0,0,0,0,0,0,0,1,0,10,4,,,,,,,,,,,,,,,5s,200.21130974404514,201.21032918710262,201.20233919285238,None,202.2021667510271,206.91076831519604,202.2021667510271,206.91076831519604,206.91076831519604,None,206.91076831519604,None,space,0.277715596370399,206.91076831519604,None,4.7081,207.3194173304364,None,,,,,,,DEC015,001,2022_Oct_14_1520,2-25_cond_decay_EYE-try,2021.2.3,119.69974538067778,
right,1.0,0.75,0,0,0,0,0,0,0,0,0,1,1,11,5,,,,,,,,,,,,,,,5s,208.36949871573597,209.36922253668308,209.36124378349632,None,210.36067551653832,211.98630179092288,210.36067551653832,211.98630179092288,211.98630179092288,None,211.98630179092288,None,space,0.40074601024389267,211.98630179092288,None,1.6176,212.51125159021467,None,,,,,,,DEC015,001,2022_Oct_14_1520,2-25_cond_decay_EYE-try,2021.2.3,119.69974538067778,
left,1.0,0.75,1,0,0,0,0,0,0,0,0,1,2,12,8,,,,,,,,,,,,,,,5s,213.57794676534832,214.57718423195183,214.5687876706943,None,215.56897402741015,215.94443888776004,215.56897402741015,215.94443888776004,215.9358439249918,None,215.9358439249918,None,space,0.361510775052011,215.9358439249918,None,0.3689,216.4278573449701,None,,,,,,,DEC015,001,2022_Oct_14_1520,2-25_cond_decay_EYE-try,2021.2.3,119.69974538067778,
right,1.0,0.75,0,0,0,0,0,0,0,0,0,1,3,13,6,,,,,,,,,,,,,,,5s,217.47825337480754,218.47715090308338,218.4692788925022,None,219.46990332286805,221.76108387112617,219.46990332286805,221.76108387112617,221.76108387112617,None,221.76108387112617,None,space,0.30000097025185823,221.76108387112617,None,2.2905,222.18587672896683,None,,,,,,,DEC015,001,2022_Oct_14_1520,2-25_cond_decay_EYE-try,2021.2.3,119.69974538067778,
right,1.0,0.75,0,0,0,0,0,0,0,0,0,1,4,14,3,,,,,,,,,,,,,,,5s,223.23711717128754,224.243889442645,224.23641629330814,None,225.23577267490327,227.97724246233702,225.23577267490327,227.97724246233702,227.9698106897995,None,227.9698106897995,None,space,0.33552774600684643,227.9698106897995,None,2.7357,228.42914421204478,None,,,,,,,DEC015,001,2022_Oct_14_1520,2-25_cond_decay_EYE-try,2021.2.3,119.69974538067778,
right,1.0,0.75,0,0,0,0,0,0,0,0,0,1,5,15,7,,,,,,,,,,,,,,,5s,229.48660388123244,230.48617461230606,230.46942894905806,None,231.46971715148538,234.127397893928,231.46971715148538,234.127397893928,234.127397893928,None,234.127397893928,None,None,,234.127397893928,None,2.6569,235.26102433074266,None,,,,,,,DEC015,001,2022_Oct_14_1520,2-25_cond_decay_EYE-try,2021.2.3,119.69974538067778,
left,0.75,1.0,0,0,0,0,0,0,0,0,0,1,6,16,2,,,,,,,,,,,,,,,5s,236.31144805066288,237.31080037727952,237.30254680663347,None,238.30287020746619,240.06965820398182,238.30287020746619,240.06965820398182,240.06094220187515,None,240.06094220187515,None,space,0.31796470284461975,240.06094220187515,None,1.7605,240.5113697303459,None,,,,,,,DEC015,001,2022_Oct_14_1520,2-25_cond_decay_EYE-try,2021.2.3,119.69974538067778,
left,0.75,1.0,0,0,0,0,0,0,0,0,0,1,7,17,1,,,,,,,,,,,,,,,5s,241.56968515366316,242.5697265258059,242.5612081028521,None,243.5615325178951,246.5442157201469,243.5615325178951,246.5442157201469,246.5442157201469,None,246.5442157201469,None,space,0.24215139728039503,246.5442157201469,None,2.9811,246.911004784517,None,,,,,,,DEC015,001,2022_Oct_14_1520,2-25_cond_decay_EYE-try,2021.2.3,119.69974538067778,
left,0.75,1.0,0,0,0,0,0,0,0,0,0,1,8,18,0,,,,,,,,,,,,,,,5s,247.97078815475106,248.9775283318013,248.97009642142802,None,249.96981345303357,251.06956100091338,249.96981345303357,251.06956100091338,251.06956100091338,None,251.06956100091338,None,space,0.3586395252496004,251.06956100091338,None,1.0997,251.55328805185854,None,,,,,,,DEC015,001,2022_Oct_14_1520,2-25_cond_decay_EYE-try,2021.2.3,119.69974538067778,
right,0.75,1.0,1,0,0,0,0,0,0,0,0,1,9,19,9,,,,,,,,,,,,,,,5s,252.61242550238967,253.61185747012496,253.61185747012496,None,254.61155143473297,259.32804141845554,254.61155143473297,259.32804141845554,259.3194949980825,None,259.3194949980825,None,space,0.2838337980210781,259.3194949980825,None,4.7156,259.72836832050234,None,,,,,,,DEC015,001,2022_Oct_14_1520,2-25_cond_decay_EYE-try,2021.2.3,119.69974538067778,
,,,,0,0,0,0,0,0,0,0,,,,,,,,,,,,,,,,,,,,,,,,,,,,,,,,,,,,,,,,,,,,,DEC015,001,2022_Oct_14_1520,2-25_cond_decay_EYE-try,2021.2.3,119.69974538067778,
right,1.0,0.75,0,0,0,0,0,1,0,1,0,0,0,0,7,,,,,,,,,260.62806393392384,None,260.62806393392384,None,260.62806393392384,None,3s,262.7042614687234,263.7032190486789,263.69498797599226,None,264.6943165259436,265.98705936037004,264.6943165259436,265.98705936037004,265.98705936037004,None,265.98705936037004,None,space,0.3183119148015976,265.98705936037004,None,1.2901,266.4359461888671,None,,,,,,,DEC015,001,2022_Oct_14_1520,2-25_cond_decay_EYE-try,2021.2.3,119.69974538067778,
right,0.75,1.0,1,0,0,0,0,1,0,1,0,0,1,1,5,,,,,,,,,,,,,,,3s,267.48650594241917,268.48660073708743,268.4777803644538,None,269.4781458415091,270.28602859564126,269.4781458415091,270.28602859564126,270.28602859564126,None,270.28602859564126,None,space,0.5505041871219873,270.28602859564126,None,0.8083,270.961529718712,None,,,,,,,DEC015,001,2022_Oct_14_1520,2-25_cond_decay_EYE-try,2021.2.3,119.69974538067778,
left,0.75,1.0,0,0,0,0,0,1,0,1,0,0,2,2,9,,,,,,,,,,,,,,,3s,272.02860259544104,273.028683623299,273.019819624722,None,274.0203186618164,274.76128530688584,274.0203186618164,274.76128530688584,274.76128530688584,None,274.76128530688584,None,space,0.2838241048157215,274.76128530688584,None,0.7416,275.17023017350584,None,,,,,,,DEC015,001,2022_Oct_14_1520,2-25_cond_decay_EYE-try,2021.2.3,119.69974538067778,
left,1.0,0.75,1,0,0,0,0,1,0,1,0,0,3,3,4,,,,,,,,,,,,,,,3s,276.22072187811136,277.22804035805166,277.2198777543381,None,278.22030209749937,280.04496137890965,278.22030209749937,280.04496137890965,280.0364023493603,None,280.0364023493603,None,space,0.2858647480607033,280.0364023493603,None,1.8239,280.4458830934018,None,,,,,,,DEC015,001,2022_Oct_14_1520,2-25_cond_decay_EYE-try,2021.2.3,119.69974538067778,
right,1.0,0.75,0,0,0,0,0,1,0,1,0,0,4,4,1,,,,,,,,,,,,,,,3s,281.51121478620917,282.51136377081275,282.50314851664007,None,283.50323569588363,286.02806974668056,283.50323569588363,286.02806974668056,286.02806974668056,None,286.02806974668056,None,space,0.3276813142001629,286.02806974668056,None,2.5252,286.4870581747964,None,,,,,,,DEC015,001,2022_Oct_14_1520,2-25_cond_decay_EYE-try,2021.2.3,119.69974538067778,
left,0.75,1.0,0,0,0,0,0,1,0,1,0,0,5,5,2,,,,,,,,,,,,,,,3s,287.545245683752,288.54530597664416,288.53689218778163,None,289.53624973632395,290.2452071700245,289.53624973632395,290.2452071700245,290.23660439345986,None,290.23660439345986,None,space,0.5589867038652301,290.23660439345986,None,0.7023,290.9208157043904,None,,,,,,,DEC015,001,2022_Oct_14_1520,2-25_cond_decay_EYE-try,2021.2.3,119.69974538067778,
right,1.0,0.75,0,0,0,0,0,1,0,1,0,0,6,6,0,,,,,,,,,,,,,,,3s,291.9871386839077,292.98641767911613,292.96967226825655,None,293.9701008955017,294.58656776323915,293.9701008955017,294.58656776323915,294.58656776323915,None,294.58656776323915,None,space,0.3530157385393977,294.58656776323915,None,0.6176,295.07048221398145,None,,,,,,,DEC015,001,2022_Oct_14_1520,2-25_cond_decay_EYE-try,2021.2.3,119.69974538067778,
left,0.75,1.0,0,0,0,0,0,1,0,1,0,0,7,7,3,,,,,,,,,,,,,,,3s,296.1208946900442,297.1201727828011,297.1120220357552,None,298.11207785923034,299.3706985991448,298.11207785923034,299.3706985991448,299.3706985991448,None,299.3706985991448,None,space,0.24230283126235008,299.3706985991448,None,1.2584,299.73675679415464,None,,,,,,,DEC015,001,2022_Oct_14_1520,2-25_cond_decay_EYE-try,2021.2.3,119.69974538067778,
right,1.0,0.75,0,0,0,0,0,1,0,1,0,0,8,8,8,,,,,,,,,,,,,,,3s,300.79539480805397,301.79529286082834,301.78644788544625,None,302.78709940891713,305.0370994210243,302.78709940891713,305.0370994210243,305.0370994210243,None,305.0370994210243,None,space,0.27739081904292107,305.0370994210243,None,2.2498,305.4450843371451,None,,,,,,,DEC015,001,2022_Oct_14_1520,2-25_cond_decay_EYE-try,2021.2.3,119.69974538067778,
right,1.0,0.75,0,0,0,0,0,1,0,1,0,0,9,9,6,,,,,,,,,,,,,,,3s,306.4962370349094,307.49510827753693,307.49510827753693,None,308.4948609173298,309.720164405182,308.4948609173298,309.720164405182,309.7116787834093,None,309.7116787834093,None,space,0.31706426944583654,309.7116787834093,None,1.2201,310.1539328042418,None,,,,,,,DEC015,001,2022_Oct_14_1520,2-25_cond_decay_EYE-try,2021.2.3,119.69974538067778,
right,1.0,0.75,0,0,0,0,0,1,0,1,0,1,0,10,0,,,,,,,,,,,,,,,3s,311.21259976830333,312.2121081314981,312.203942829743,None,313.20400026999414,314.3704690076411,313.20400026999414,314.3704690076411,314.3704690076411,None,314.3704690076411,None,space,0.30296315997838974,314.3704690076411,None,1.1649,314.80371780879796,None,,,,,,,DEC015,001,2022_Oct_14_1520,2-25_cond_decay_EYE-try,2021.2.3,119.69974538067778,
left,0.75,1.0,0,0,0,0,0,1,0,1,0,1,1,11,2,,,,,,,,,,,,,,,3s,315.8539529116824,316.8539842190221,316.8457947578281,None,317.8457858003676,320.7288561584428,317.8457858003676,320.7288561584428,320.72039056010544,None,320.72039056010544,None,space,0.25895417761057615,320.72039056010544,None,2.879,321.10345732979476,None,,,,,,,DEC015,001,2022_Oct_14_1520,2-25_cond_decay_EYE-try,2021.2.3,119.69974538067778,
left,1.0,0.75,1,0,0,0,0,1,0,1,0,1,2,12,4,,,,,,,,,,,,,,,3s,322.16162620298564,323.16187153942883,323.15350366476923,None,324.15365025401115,326.903741825372,324.15365025401115,326.903741825372,326.903741825372,None,326.903741825372,None,space,0.2928048139438033,326.903741825372,None,2.7513,327.3220817372203,None,,,,,,,DEC015,001,2022_Oct_14_1520,2-25_cond_decay_EYE-try,2021.2.3,119.69974538067778,
right,1.0,0.75,0,0,0,0,0,1,0,1,0,1,3,13,8,,,,,,,,,,,,,,,3s,328.38674366287887,329.38733098842204,329.3791831880808,None,330.37874895334244,332.5706471744925,330.37874895334244,332.5706471744925,332.5706471744925,None,332.5706471744925,None,space,0.2527599669992924,332.5706471744925,None,2.1918,332.95410397462547,None,,,,,,,DEC015,001,2022_Oct_14_1520,2-25_cond_decay_EYE-try,2021.2.3,119.69974538067778,
right,1.0,0.75,0,0,0,0,0,1,0,1,0,1,4,14,6,,,,,,,,,,,,,,,3s,334.0040950514376,335.00428747665137,334.9957771701738,None,335.9956092713401,338.24576442409307,335.9956092713401,338.24576442409307,338.24576442409307,None,338.24576442409307,None,space,0.2768592443317175,338.24576442409307,None,2.2492,338.6536067901179,None,,,,,,,DEC015,001,2022_Oct_14_1520,2-25_cond_decay_EYE-try,2021.2.3,119.69974538067778,
left,0.75,1.0,0,0,0,0,0,1,0,1,0,1,5,15,7,,,,,,,,,,,,,,,3s,339.71257929410785,340.7124173818156,340.6954647041857,None,341.69533824082464,344.487756033428,341.69533824082464,344.487756033428,344.487756033428,None,344.487756033428,None,space,0.2506042392924428,344.487756033428,None,2.7875,344.86228411085904,None,,,,,,,DEC015,001,2022_Oct_14_1520,2-25_cond_decay_EYE-try,2021.2.3,119.69974538067778,
left,0.75,1.0,0,0,0,0,0,1,0,1,0,1,6,16,3,,,,,,,,,,,,,,,3s,345.9210250545293,346.9207467576489,346.9126594690606,None,347.9124082485214,349.0962097160518,347.9124082485214,349.0962097160518,349.0962097160518,None,349.0962097160518,None,space,0.31909768376499414,349.0962097160518,None,1.1839,349.5452853143215,None,,,,,,,DEC015,001,2022_Oct_14_1520,2-25_cond_decay_EYE-try,2021.2.3,119.69974538067778,
right,1.0,0.75,0,0,0,0,0,1,0,1,0,1,7,17,1,,,,,,,,,,,,,,,3s,350.59641602635384,351.59551631007344,351.57865185663104,None,352.5792327914387,353.82921609748155,352.5792327914387,353.82921609748155,353.82921609748155,None,353.82921609748155,None,None,,353.82921609748155,None,1.2501,354.95443860441446,None,,,,,,,DEC015,001,2022_Oct_14_1520,2-25_cond_decay_EYE-try,2021.2.3,119.69974538067778,
left,0.75,1.0,0,0,0,0,0,1,0,1,0,1,8,18,9,,,,,,,,,,,,,,,3s,356.00533487834036,357.01229160279036,356.9953854586929,None,357.9961474938318,359.237892719917,357.9961474938318,359.237892719917,359.237892719917,None,359.237892719917,None,space,0.268506639637053,359.237892719917,None,1.2375,359.63716488704085,None,,,,,,,DEC015,001,2022_Oct_14_1520,2-25_cond_decay_EYE-try,2021.2.3,119.69974538067778,
right,0.75,1.0,1,0,0,0,0,1,0,1,0,1,9,19,5,,,,,,,,,,,,,,,3s,360.69624326284975,361.6954382257536,361.68724740017205,None,362.6871886122972,364.5546795260161,362.6871886122972,364.5546795260161,364.5461500277743,None,364.5461500277743,None,space,0.2752411551773548,364.5461500277743,None,1.8599,364.945994829759,None,,,,,,,DEC015,001,2022_Oct_14_1520,2-25_cond_decay_EYE-try,2021.2.3,119.69974538067778,
,,,,0,0,0,0,1,0,1,0,,,,,,,,,,,,,,,,,,,,,,,,,,,,,,,,,,,,,,,,,,,,,DEC015,001,2022_Oct_14_1520,2-25_cond_decay_EYE-try,2021.2.3,119.69974538067778,
left,1.0,0.75,1,0,0,0,0,2,0,2,0,0,0,0,8,,,,,,,,,365.8456310695037,None,365.8456310695037,None,365.8456310695037,None,1s,369.15418340917677,370.154445881024,370.14629530347884,None,371.1460781414062,372.0291469646618,371.1460781414062,372.0291469646618,372.0291469646618,None,372.0291469646618,None,space,0.3005725285038352,372.0291469646618,None,0.8793,372.45479952171445,None,,,,,,,DEC015,001,2022_Oct_14_1520,2-25_cond_decay_EYE-try,2021.2.3,119.69974538067778,
left,0.75,1.0,0,0,0,0,0,2,0,2,0,0,1,1,2,,,,,,,,,,,,,,,1s,373.5128659233451,374.51226758770645,374.5042266892269,None,375.5041085295379,375.91279480047524,375.5041085295379,375.91279480047524,375.91279480047524,None,375.91279480047524,None,space,0.26682788506150246,375.91279480047524,None,0.408,376.30488330777735,None,,,,,,,DEC015,001,2022_Oct_14_1520,2-25_cond_decay_EYE-try,2021.2.3,119.69974538067778,
right,1.0,0.75,0,0,0,0,0,2,0,2,0,0,2,2,9,,,,,,,,,,,,,,,1s,377.3628934593871,378.3623021636158,378.35394759941846,None,379.3539273859933,379.6712040444836,379.3539273859933,379.6712040444836,379.6712040444836,None,379.6712040444836,None,space,0.29188862442970276,379.6712040444836,None,0.311,380.08794796839356,None,,,,,,,DEC015,001,2022_Oct_14_1520,2-25_cond_decay_EYE-try,2021.2.3,119.69974538067778,
right,1.0,0.75,0,0,0,0,0,2,0,2,0,0,3,3,4,,,,,,,,,,,,,,,1s,381.14656303450465,382.1460830392316,382.1380519680679,None,383.13799958396703,383.75418315362185,383.13799958396703,383.75418315362185,383.75418315362185,None,383.75418315362185,None,space,0.24255737848579884,383.75418315362185,None,0.6165,384.1209647944197,None,,,,,,,DEC015,001,2022_Oct_14_1520,2-25_cond_decay_EYE-try,2021.2.3,119.69974538067778,
left,0.75,1.0,0,0,0,0,0,2,0,2,0,0,4,4,0,,,,,,,,,,,,,,,1s,385.18816868867725,386.1879552481696,386.1798158129677,None,387.17983767949045,388.0209183646366,387.17983767949045,388.0209183646366,388.0132977254689,None,388.0132977254689,None,space,0.25211405754089355,388.0132977254689,None,0.8356,388.3894792133942,None,,,,,,,DEC015,001,2022_Oct_14_1520,2-25_cond_decay_EYE-try,2021.2.3,119.69974538067778,
right,0.75,1.0,1,0,0,0,0,2,0,2,0,0,5,5,6,,,,,,,,,,,,,,,1s,389.446047866717,390.44579699169844,390.43752926867455,None,391.43003013916314,392.24590495973825,391.43003013916314,392.24590495973825,392.24590495973825,None,392.24590495973825,None,space,0.06063226796686649,392.24590495973825,None,0.8144,392.43734384328127,None,,,,,,,DEC015,001,2022_Oct_14_1520,2-25_cond_decay_EYE-try,2021.2.3,119.69974538067778,
right,1.0,0.75,0,0,0,0,0,2,0,2,0,0,6,6,1,,,,,,,,,,,,,,,1s,393.4874991476536,394.4884723648429,394.47949677240103,None,395.4798382902518,395.6960505079478,395.4798382902518,395.6960505079478,395.6875088941306,None,395.6875088941306,None,space,0.33640525955706835,395.6875088941306,None,0.21,396.1544342963025,None,,,,,,,DEC015,001,2022_Oct_14_1520,2-25_cond_decay_EYE-try,2021.2.3,119.69974538067778,
left,1.0,0.75,1,0,0,0,0,2,0,2,0,0,7,7,3,,,,,,,,,,,,,,,1s,397.2130691278726,398.21319860685617,398.1961673712358,None,399.1960820630193,399.4211419513449,399.1960820630193,399.4211419513449,399.4211419513449,None,399.4211419513449,None,space,0.31723435409367085,399.4211419513449,None,0.2213,399.8639740720391,None,,,,,,,DEC015,001,2022_Oct_14_1520,2-25_cond_decay_EYE-try,2021.2.3,119.69974538067778,
right,1.0,0.75,0,0,0,0,0,2,0,2,0,0,8,8,5,,,,,,,,,,,,,,,1s,400.9212011443451,401.92094101849943,401.91241641901433,None,402.9126646351069,403.3047936661169,402.9126646351069,403.3047936661169,403.3047936661169,None,403.3047936661169,None,space,0.28423356264829636,403.3047936661169,None,0.39,403.714192379266,None,,,,,,,DEC015,001,2022_Oct_14_1520,2-25_cond_decay_EYE-try,2021.2.3,119.69974538067778,
left,0.75,1.0,0,0,0,0,0,2,0,2,0,0,9,9,7,,,,,,,,,,,,,,,1s,404.77984679304063,405.7799596134573,405.7709854161367,None,406.7714637424797,407.52914040721953,406.7714637424797,407.52914040721953,407.5207965588197,None,407.5207965588197,None,space,0.2588332938030362,407.5207965588197,None,0.7506,407.90503224451095,None,,,,,,,DEC015,001,2022_Oct_14_1520,2-25_cond_decay_EYE-try,2021.2.3,119.69974538067778,
right,1.0,0.75,0,0,0,0,0,2,0,2,0,1,0,10,1,,,,,,,,,,,,,,,1s,408.9625799562782,409.96254423540086,409.94668776821345,None,410.94696207530797,411.22140594013035,410.94696207530797,411.22140594013035,411.22140594013035,None,411.22140594013035,None,space,0.3168634446337819,411.22140594013035,None,0.2747,411.6629515942186,None,,,,,,,DEC015,001,2022_Oct_14_1520,2-25_cond_decay_EYE-try,2021.2.3,119.69974538067778,
left,0.75,1.0,0,0,0,0,0,2,0,2,0,1,1,11,0,,,,,,,,,,,,,,,1s,412.72317393217236,413.7298200028017,413.7209323486313,None,414.72164079826325,415.354629047215,414.72164079826325,415.354629047215,415.3459556363523,None,415.3459556363523,None,space,0.2423597127199173,415.3459556363523,None,0.6268,415.7129094544798,None,,,,,,,DEC015,001,2022_Oct_14_1520,2-25_cond_decay_EYE-try,2021.2.3,119.69974538067778,
left,0.75,1.0,0,0,0,0,0,2,0,2,0,1,2,12,2,,,,,,,,,,,,,,,1s,416.77111435495317,417.77090060152113,417.76281478907913,None,418.7626846889034,419.33790227770805,418.7626846889034,419.33790227770805,419.33790227770805,None,419.33790227770805,None,space,0.3445780351758003,419.33790227770805,None,0.5694,419.8133826367557,None,,,,,,,DEC015,001,2022_Oct_14_1520,2-25_cond_decay_EYE-try,2021.2.3,119.69974538067778,
right,0.75,1.0,1,0,0,0,0,2,0,2,0,1,3,13,6,,,,,,,,,,,,,,,1s,420.8719796333462,421.87197361979634,421.8628086037934,None,422.8627252811566,423.78865090664476,422.8627252811566,423.78865090664476,423.78865090664476,None,423.78865090664476,None,space,0.2172875478863716,423.78865090664476,None,0.9227,424.13101770170033,None,,,,,,,DEC015,001,2022_Oct_14_1520,2-25_cond_decay_EYE-try,2021.2.3,119.69974538067778,
left,0.75,1.0,0,0,0,0,0,2,0,2,0,1,4,14,8,,,,,,,,,,,,,,,1s,425.19702940713614,426.1966116866097,426.18840788770467,None,427.1884415131062,427.879447279498,427.1884415131062,427.879447279498,427.8719480158761,None,427.8719480158761,None,space,0.27533555030822754,427.8719480158761,None,0.686,428.2715059071779,None,,,,,,,DEC015,001,2022_Oct_14_1520,2-25_cond_decay_EYE-try,2021.2.3,119.69974538067778,
left,1.0,0.75,1,0,0,0,0,2,0,2,0,1,5,15,3,,,,,,,,,,,,,,,1s,429.33010879997164,430.32954359892756,430.32129682879895,None,431.3211290286854,432.31295584049076,431.3211290286854,432.31295584049076,432.31295584049076,None,432.31295584049076,None,space,0.24271997343748808,432.31295584049076,None,0.9899,432.68154138419777,None,,,,,,,DEC015,001,2022_Oct_14_1520,2-25_cond_decay_EYE-try,2021.2.3,119.69974538067778,
right,1.0,0.75,0,0,0,0,0,2,0,2,0,1,6,16,9,,,,,,,,,,,,,,,1s,433.739117895253,434.74650620669127,434.7295540329069,None,435.7299776142463,435.8880427451804,435.7299776142463,435.8880427451804,435.8880427451804,None,435.8880427451804,None,space,0.386581770144403,435.8880427451804,None,0.1524,436.39827572368085,None,,,,,,,DEC015,001,2022_Oct_14_1520,2-25_cond_decay_EYE-try,2021.2.3,119.69974538067778,
left,0.75,1.0,0,0,0,0,0,2,0,2,0,1,7,17,7,,,,,,,,,,,,,,,1s,437.46364184003323,438.4635208938271,438.45550244953483,None,439.45534790027887,439.6795248910785,439.45534790027887,439.6795248910785,439.6795248910785,None,439.6795248910785,None,space,0.276450133882463,439.6795248910785,None,0.2213,440.0801700344309,None,,,,,,,DEC015,001,2022_Oct_14_1520,2-25_cond_decay_EYE-try,2021.2.3,119.69974538067778,
right,1.0,0.75,0,0,0,0,0,2,0,2,0,1,8,18,5,,,,,,,,,,,,,,,1s,441.1464241594076,442.14652912225574,442.1379842944443,None,443.1383760208264,443.53887850418687,443.1383760208264,443.53887850418687,443.53887850418687,None,443.53887850418687,None,space,0.2688795132562518,443.53887850418687,None,0.3999,443.9383235387504,None,,,,,,,DEC015,001,2022_Oct_14_1520,2-25_cond_decay_EYE-try,2021.2.3,119.69974538067778,
right,1.0,0.75,0,0,0,0,0,2,0,2,0,1,9,19,4,,,,,,,,,,,,,,,1s,444.98867730796337,445.9884644690901,445.9804562618956,None,446.98010521382093,447.38811485562474,446.98010521382093,447.38811485562474,447.38811485562474,None,447.38811485562474,None,space,0.27707172743976116,447.38811485562474,None,0.4058,447.78983260225505,None,,,,,,,DEC015,001,2022_Oct_14_1520,2-25_cond_decay_EYE-try,2021.2.3,119.69974538067778,
,,,,0,0,0,0,2,0,2,0,,,,,,,,,,,,,,,,,,,,,,,,,,,,,,,,,,,,,,,,,,,,,DEC015,001,2022_Oct_14_1520,2-25_cond_decay_EYE-try,2021.2.3,119.69974538067778,
left,0.75,1.0,0,0,0,0,0,3,0,3,0,0,0,0,0,,,,,,,,,448.68847214523703,None,448.68847214523703,None,448.68847214523703,None,10s,453.7964963307604,454.79718691203743,454.78812653943896,None,455.7880334528163,460.038075924851,455.7880334528163,460.038075924851,460.038075924851,None,460.038075924851,None,space,0.27593016251921654,460.038075924851,None,4.2509,460.43981236964464,None,,,,,,,DEC015,001,2022_Oct_14_1520,2-25_cond_decay_EYE-try,2021.2.3,119.69974538067778,
right,0.75,1.0,1,0,0,0,0,3,0,3,0,0,1,1,3,,,,,,,,,,,,,,,10s,461.5049405656755,462.5048925029114,462.49660240486264,None,463.4971297523007,469.0389664452523,463.4971297523007,469.0389664452523,469.0302513502538,None,469.0302513502538,None,space,0.3423812370747328,469.0302513502538,None,5.5359,469.49882286041975,None,,,,,,,DEC015,001,2022_Oct_14_1520,2-25_cond_decay_EYE-try,2021.2.3,119.69974538067778,
left,0.75,1.0,0,0,0,0,0,3,0,3,0,0,2,2,1,,,,,,,,,,,,,,,10s,470.5636095954105,471.56385544128716,471.5555742541328,None,472.55570061597973,480.7552965497598,472.55570061597973,480.7552965497598,480.7552965497598,None,480.7552965497598,None,space,0.36750613432377577,480.7552965497598,None,8.2,481.24756751488894,None,,,,,,,DEC015,001,2022_Oct_14_1520,2-25_cond_decay_EYE-try,2021.2.3,119.69974538067778,
left,0.75,1.0,0,0,0,0,0,3,0,3,0,0,3,3,4,,,,,,,,,,,,,,,10s,482.30586705263704,483.3059158427641,483.29680062644184,None,484.29675593879074,492.03094023745507,484.29675593879074,492.03094023745507,492.03094023745507,None,492.03094023745507,None,space,0.33323533181101084,492.03094023745507,None,7.7287,492.48982725664973,None,,,,,,,DEC015,001,2022_Oct_14_1520,2-25_cond_decay_EYE-try,2021.2.3,119.69974538067778,
right,1.0,0.75,0,0,0,0,0,3,0,3,0,0,4,4,2,,,,,,,,,,,,,,,10s,493.5555108971894,494.55552133731544,494.54708372894675,None,495.54768778104335,501.08010767214,495.54768778104335,501.08010767214,501.07176949083805,None,501.07176949083805,None,None,,501.07176949083805,None,5.5255,502.1972105782479,None,,,,,,,DEC015,001,2022_Oct_14_1520,2-25_cond_decay_EYE-try,2021.2.3,119.69974538067778,
right,1.0,0.75,0,0,0,0,0,3,0,3,0,0,5,5,6,,,,,,,,,,,,,,,10s,503.2471435572952,504.247830378823,504.2387158777565,None,505.2385322647169,505.52263875864446,505.2385322647169,505.52263875864446,505.52263875864446,None,505.52263875864446,None,space,0.5607956061139703,505.52263875864446,None,0.2785,506.21388914529234,None,,,,,,,DEC015,001,2022_Oct_14_1520,2-25_cond_decay_EYE-try,2021.2.3,119.69974538067778,
right,1.0,0.75,0,0,0,0,0,3,0,3,0,0,6,6,5,,,,,,,,,,,,,,,10s,507.26457665208727,508.2636175584048,508.25581947434694,None,509.25533437915146,518.7476835511625,509.25533437915146,518.7476835511625,518.738962450996,None,518.738962450996,None,space,0.3528397884219885,518.738962450996,None,9.4861,519.2227183077484,None,,,,,,,DEC015,001,2022_Oct_14_1520,2-25_cond_decay_EYE-try,2021.2.3,119.69974538067778,
left,0.75,1.0,0,0,0,0,0,3,0,3,0,0,7,7,7,,,,,,,,,,,,,,,10s,520.2721493272111,521.2726304223761,521.2560054268688,None,522.2562588611618,531.0729649038985,522.2562588611618,531.0729649038985,531.0729649038985,None,531.0729649038985,None,space,0.3445831900462508,531.0729649038985,None,8.8112,531.5473219146952,None,,,,,,,DEC015,001,2022_Oct_14_1520,2-25_cond_decay_EYE-try,2021.2.3,119.69974538067778,
left,0.75,1.0,0,0,0,0,0,3,0,3,0,0,8,8,9,,,,,,,,,,,,,,,10s,532.5981164500117,533.6063831206411,533.5888124434277,None,534.589090809226,535.9477936867625,534.589090809226,535.9477936867625,535.939197525382,536.9395876117051,535.939197525382,536.9395876117051,None,,535.939197525382,536.9395876117051,1.3556,537.0729038491845,None,,,,,,,DEC015,001,2022_Oct_14_1520,2-25_cond_decay_EYE-try,2021.2.3,119.69974538067778,
right,1.0,0.75,0,0,0,0,0,3,0,3,0,0,9,9,8,,,,,,,,,,,,,,,10s,538.1227447325364,539.122877985239,539.1143035832793,None,540.1144169289619,550.0891947736964,540.1144169289619,550.0891947736964,550.0891947736964,None,550.0891947736964,None,space,0.3189986879006028,550.0891947736964,None,9.9682,550.5400364790112,None,,,,,,,DEC015,001,2022_Oct_14_1520,2-25_cond_decay_EYE-try,2021.2.3,119.69974538067778,
right,1.0,0.75,0,0,0,0,0,3,0,3,0,1,0,10,5,,,,,,,,,,,,,,,10s,551.5895910412073,552.5892548812553,552.5812258534133,None,553.5809420328587,558.2568229818717,553.5809420328587,558.2568229818717,558.2479639509693,None,558.2479639509693,None,space,0.41952987667173147,558.2479639509693,None,4.6702,558.7975612459704,None,,,,,,,DEC015,001,2022_Oct_14_1520,2-25_cond_decay_EYE-try,2021.2.3,119.69974538067778,
left,0.75,1.0,0,0,0,0,0,3,0,3,0,1,1,11,4,,,,,,,,,,,,,,,10s,559.8561356570572,560.8560625370592,560.8477462949231,None,561.8476502317935,567.1810194486752,561.8476502317935,567.1810194486752,567.1810194486752,None,567.1810194486752,None,space,0.6695378953590989,567.1810194486752,None,5.3346,567.9813730809838,None,,,,,,,DEC015,001,2022_Oct_14_1520,2-25_cond_decay_EYE-try,2021.2.3,119.69974538067778,
right,1.0,0.75,0,0,0,0,0,3,0,3,0,1,2,12,8,,,,,,,,,,,,,,,10s,569.0314584858716,570.0310088610277,570.0225431192666,None,571.0235206829384,572.1649151323363,571.0235206829384,572.1649151323363,572.1562883201987,573.1562086613849,572.1562883201987,573.1562086613849,None,,572.1562883201987,573.1562086613849,1.1355,573.2897556042299,None,,,,,,,DEC015,001,2022_Oct_14_1520,2-25_cond_decay_EYE-try,2021.2.3,119.69974538067778,
right,1.0,0.75,0,0,0,0,0,3,0,3,0,1,3,13,6,,,,,,,,,,,,,,,10s,574.3328627943993,575.3398486757651,575.3316452642903,None,576.3319066362455,582.4316806513816,576.3319066362455,582.4316806513816,582.423225523904,None,582.423225523904,None,space,0.3174030212685466,582.423225523904,None,6.093,582.8728829259053,None,,,,,,,DEC015,001,2022_Oct_14_1520,2-25_cond_decay_EYE-try,2021.2.3,119.69974538067778,
left,0.75,1.0,0,0,0,0,0,3,0,3,0,1,4,14,7,,,,,,,,,,,,,,,10s,583.9320009406656,584.9317310629413,584.9147683400661,None,585.9146187519655,593.9063358828425,585.9146187519655,593.9063358828425,593.9063358828425,None,593.9063358828425,None,space,0.38380052242428064,593.9063358828425,None,7.9859,594.4150689402595,None,,,,,,,DEC015,001,2022_Oct_14_1520,2-25_cond_decay_EYE-try,2021.2.3,119.69974538067778,
right,0.75,1.0,1,0,0,0,0,3,0,3,0,1,5,15,3,,,,,,,,,,,,,,,10s,595.481525789015,596.481471767649,596.4730768846348,None,597.4734085733071,597.9403557078913,597.4734085733071,597.9403557078913,597.9403557078913,None,597.9403557078913,None,None,,597.9403557078913,None,0.4646,599.065138312988,None,,,,,,,DEC015,001,2022_Oct_14_1520,2-25_cond_decay_EYE-try,2021.2.3,119.69974538067778,
right,1.0,0.75,0,0,0,0,0,3,0,3,0,1,6,16,2,,,,,,,,,,,,,,,10s,600.1168269617483,601.1234002318233,601.1149918977171,None,602.115570096299,610.9983946094289,602.115570096299,610.9983946094289,610.9983946094289,None,610.9983946094289,None,space,0.3425173945724964,610.9983946094289,None,8.883,611.4733617482707,None,,,,,,,DEC015,001,2022_Oct_14_1520,2-25_cond_decay_EYE-try,2021.2.3,119.69974538067778,
left,0.75,1.0,0,0,0,0,0,3,0,3,0,1,7,17,1,,,,,,,,,,,,,,,10s,612.5317419972271,613.5319761028513,613.5153324408457,None,614.5151889221743,620.4820782989264,614.5151889221743,620.4820782989264,620.4820782989264,None,620.4820782989264,None,space,0.3949031177908182,620.4820782989264,None,5.9621,621.0065448852256,None,,,,,,,DEC015,001,2022_Oct_14_1520,2-25_cond_decay_EYE-try,2021.2.3,119.69974538067778,
left,0.75,1.0,0,0,0,0,0,3,0,3,0,1,8,18,9,,,,,,,,,,,,,,,10s,622.0570764821023,623.0573366004974,623.0487447101623,None,624.0480934167281,626.7740929508582,624.0480934167281,626.7740929508582,626.7654945291579,627.7652041409165,626.7654945291579,627.7652041409165,None,,626.7654945291579,627.7652041409165,2.7183,627.8988705761731,None,,,,,,,DEC015,001,2022_Oct_14_1520,2-25_cond_decay_EYE-try,2021.2.3,119.69974538067778,
left,1.0,0.75,1,0,0,0,0,3,0,3,0,1,9,19,0,,,,,,,,,,,,,,,10s,628.949694538489,629.9573045512661,629.9489119946957,None,630.9482359122485,638.6239607697353,630.9482359122485,638.6239607697353,638.6150045013055,None,638.6150045013055,None,space,0.8593214172869921,638.6150045013055,None,7.671,639.607358654961,None,,,,,,,DEC015,001,2022_Oct_14_1520,2-25_cond_decay_EYE-try,2021.2.3,119.69974538067778,
,,,,0,0,0,0,3,0,3,0,,,,,,,,,,,,,,,,,,,,,,,,,,,,,,,,,,,,,,,,,,,,,DEC015,001,2022_Oct_14_1520,2-25_cond_decay_EYE-try,2021.2.3,119.69974538067778,
,,,,0,0,0,0,,,,,,,,,,,,,,,,,,,,,,,,,,,,,,,,,,,,,,,,,,,640.4985505128279,None,640.4985505128279,None,640.4985505128279,None,DEC015,001,2022_Oct_14_1520,2-25_cond_decay_EYE-try,2021.2.3,119.69974538067778,
left,0.75,1.0,0,1,0,1,0,0,0,0,0,0,0,0,0,,,,,,,,,645.4986403882504,None,645.4986403882504,None,645.4986403882504,None,5s,659.9828995624557,660.9825174892321,660.9655046034604,None,661.9657293371856,664.2656237315387,661.9657293371856,664.2656237315387,664.2656237315387,None,664.2656237315387,None,space,0.36064785718917847,664.2656237315387,None,2.2933,664.7569436002523,None,,,,,,,DEC015,001,2022_Oct_14_1520,2-25_cond_decay_EYE-try,2021.2.3,119.69974538067778,
right,0.75,1.0,1,1,0,1,0,0,0,0,0,0,1,1,9,,,,,,,,,,,,,,,5s,665.8157347422093,666.8157702842727,666.8074322659522,None,667.8075654609129,670.5239835223183,667.8075654609129,670.5239835223183,670.5156379984692,None,670.5156379984692,None,space,0.32773795165121555,670.5156379984692,None,2.7092,670.9674307536334,None,,,,,,,DEC015,001,2022_Oct_14_1520,2-25_cond_decay_EYE-try,2021.2.3,119.69974538067778,
right,1.0,0.75,0,1,0,1,0,0,0,0,0,0,2,2,8,,,,,,,,,,,,,,,5s,672.0168731492013,673.023680716753,673.0157026834786,None,674.0154402796179,674.5410188417882,674.0154402796179,674.5410188417882,674.5326031371951,None,674.5326031371951,None,space,0.5190090853720903,674.5326031371951,None,0.5214,675.175550297834,None,,,,,,,DEC015,001,2022_Oct_14_1520,2-25_cond_decay_EYE-try,2021.2.3,119.69974538067778,
left,0.75,1.0,0,1,0,1,0,0,0,0,0,0,3,3,3,,,,,,,,,,,,,,,5s,676.233110348694,677.2327601891011,677.224650404416,None,678.2245250763372,678.5993718532845,678.2245250763372,678.5993718532845,678.5993718532845,None,678.5993718532845,None,space,0.31702655740082264,678.5993718532845,None,0.3703,679.0403924668208,None,,,,,,,DEC015,001,2022_Oct_14_1520,2-25_cond_decay_EYE-try,2021.2.3,119.69974538067778,
left,1.0,0.75,1,1,0,1,0,0,0,0,0,0,4,4,4,,,,,,,,,,,,,,,5s,680.0994999343529,681.0996897090226,681.0905840108171,None,682.0904707228765,686.0324023375288,682.0904707228765,686.0324023375288,686.0324023375288,None,686.0324023375288,None,space,0.6680429233238101,686.0324023375288,None,3.9371,686.8257363056764,None,,,,,,,DEC015,001,2022_Oct_14_1520,2-25_cond_decay_EYE-try,2021.2.3,119.69974538067778,
left,0.75,1.0,0,1,0,1,0,0,0,0,0,0,5,5,5,,,,,,,,,,,,,,,5s,687.882420851849,688.8825646182522,688.8740576123819,None,689.8742635287344,691.2079435382038,689.8742635287344,691.2079435382038,691.2079435382038,None,691.2079435382038,None,space,0.5360828982666135,691.2079435382038,None,1.3301,691.8749161679298,None,,,,,,,DEC015,001,2022_Oct_14_1520,2-25_cond_decay_EYE-try,2021.2.3,119.69974538067778,
right,1.0,0.75,0,1,0,1,0,0,0,0,0,0,6,6,7,,,,,,,,,,,,,,,5s,692.9325322089717,693.9326417632401,693.9245118396357,None,694.9239760143682,696.4993220018223,694.9239760143682,696.4993220018223,696.4993220018223,None,696.4993220018223,None,space,0.5115161947906017,696.4993220018223,None,1.5726,697.1413235776126,None,,,,,,,DEC015,001,2022_Oct_14_1520,2-25_cond_decay_EYE-try,2021.2.3,119.69974538067778,
right,1.0,0.75,0,1,0,1,0,0,0,0,0,0,7,7,2,,,,,,,,,,,,,,,5s,698.1910700276494,699.1910308543593,699.1825468540192,None,700.1825022771955,704.8242434589192,700.1825022771955,704.8242434589192,704.8242434589192,705.8243799190968,704.8242434589192,705.8243799190968,None,,704.8242434589192,705.8243799190968,4.6428,705.9576523881406,None,,,,,,,DEC015,001,2022_Oct_14_1520,2-25_cond_decay_EYE-try,2021.2.3,119.69974538067778,
right,1.0,0.75,0,1,0,1,0,0,0,0,0,0,8,8,6,,,,,,,,,,,,,,,5s,707.0093003334478,708.0162419648841,708.0080334842205,None,709.0074243461713,709.1824135780334,709.0074243461713,709.1824135780334,709.1750332601368,None,709.1750332601368,None,space,0.3769293921068311,709.1750332601368,None,0.1713,709.6825002748519,None,,,,,,,DEC015,001,2022_Oct_14_1520,2-25_cond_decay_EYE-try,2021.2.3,119.69974538067778,
left,0.75,1.0,0,1,0,1,0,0,0,0,0,0,9,9,1,,,,,,,,,,,,,,,5s,710.7343965992332,711.7409236431122,711.7328616408631,None,712.7331289378926,715.3074771603569,712.7331289378926,715.3074771603569,715.2999027790502,None,715.2999027790502,None,space,0.35174446552991867,715.2999027790502,None,2.5675,715.7831123396754,None,,,,,,,DEC015,001,2022_Oct_14_1520,2-25_cond_decay_EYE-try,2021.2.3,119.69974538067778,
right,1.0,0.75,0,1,0,1,0,0,0,0,0,1,0,10,2,,,,,,,,,,,,,,,5s,716.8411972029135,717.8410876309499,717.8327594250441,None,718.8332691770047,719.433502804488,718.8332691770047,719.433502804488,719.433502804488,None,719.433502804488,None,space,0.31015833653509617,719.433502804488,None,0.6002,719.8743680268526,None,,,,,,,DEC015,001,2022_Oct_14_1520,2-25_cond_decay_EYE-try,2021.2.3,119.69974538067778,
left,1.0,0.75,1,1,0,1,0,0,0,0,0,1,1,11,4,,,,,,,,,,,,,,,5s,720.9263238441199,721.9327996131033,721.9243775727227,None,722.9247974399477,726.0992792388424,722.9247974399477,726.0992792388424,726.0909723266959,None,726.0909723266959,None,space,0.358930766582489,726.0909723266959,None,3.1697,726.5752586079761,None,,,,,,,DEC015,001,2022_Oct_14_1520,2-25_cond_decay_EYE-try,2021.2.3,119.69974538067778,
left,0.75,1.0,0,1,0,1,0,0,0,0,0,1,2,12,0,,,,,,,,,,,,,,,5s,727.6333031654358,728.6331660728902,728.6250610491261,None,729.6251030070707,729.9752951078117,729.6251030070707,729.9752951078117,729.9665801059455,None,729.9665801059455,None,space,0.3508578762412071,729.9665801059455,None,0.344,730.441645713523,None,,,,,,,DEC015,001,2022_Oct_14_1520,2-25_cond_decay_EYE-try,2021.2.3,119.69974538067778,
right,0.75,1.0,1,1,0,1,0,0,0,0,0,1,3,13,9,,,,,,,,,,,,,,,5s,731.4999495428056,732.4998353142291,732.4915057644248,None,733.4911097073928,735.0997255062684,733.4911097073928,735.0997255062684,735.0997255062684,None,735.0997255062684,None,space,0.6170855555683374,735.0997255062684,None,1.6096,735.8416372798383,None,,,,,,,DEC015,001,2022_Oct_14_1520,2-25_cond_decay_EYE-try,2021.2.3,119.69974538067778,
right,1.0,0.75,0,1,0,1,0,0,0,0,0,1,4,14,7,,,,,,,,,,,,,,,5s,736.9000694509596,737.9000571677461,737.8909392850474,None,738.8919686032459,740.8084539184347,738.8919686032459,740.8084539184347,740.8084539184347,None,740.8084539184347,None,None,,740.8084539184347,None,1.915,741.9332775622606,None,,,,,,,DEC015,001,2022_Oct_14_1520,2-25_cond_decay_EYE-try,2021.2.3,119.69974538067778,
left,0.75,1.0,0,1,0,1,0,0,0,0,0,1,5,15,3,,,,,,,,,,,,,,,5s,742.9917513467371,743.991618335247,743.9832756472751,None,744.9837215319276,749.6082583274692,744.9837215319276,749.6082583274692,749.6082583274692,None,749.6082583274692,None,space,0.3093219297006726,749.6082583274692,None,4.6238,750.0503256386146,None,,,,,,,DEC015,001,2022_Oct_14_1520,2-25_cond_decay_EYE-try,2021.2.3,119.69974538067778,
right,1.0,0.75,0,1,0,1,0,0,0,0,0,1,6,16,6,,,,,,,,,,,,,,,5s,751.1086918497458,752.1078566992655,752.0997161278501,None,753.0995956910774,757.2501354040578,753.0995956910774,757.2501354040578,757.2416633907706,None,757.2416633907706,None,space,0.3358662072569132,757.2416633907706,None,4.1444,757.7012814693153,None,,,,,,,DEC015,001,2022_Oct_14_1520,2-25_cond_decay_EYE-try,2021.2.3,119.69974538067778,
right,1.0,0.75,0,1,0,1,0,0,0,0,0,1,7,17,8,,,,,,,,,,,,,,,5s,758.758887805976,759.7585819279775,759.7499326923862,None,760.7505079722032,761.7587977880612,760.7505079722032,761.7587977880612,761.7587977880612,None,761.7587977880612,None,space,0.3003162210807204,761.7587977880612,None,1.0052,762.1834367793053,None,,,,,,,DEC015,001,2022_Oct_14_1520,2-25_cond_decay_EYE-try,2021.2.3,119.69974538067778,
left,0.75,1.0,0,1,0,1,0,0,0,0,0,1,8,18,5,,,,,,,,,,,,,,,5s,763.2419057972729,764.2416859241202,764.2254429934546,None,765.2256255298853,767.383689452894,765.2256255298853,767.383689452894,767.383689452894,None,767.383689452894,None,space,0.2527857320383191,767.383689452894,None,2.1545,767.766783054918,None,,,,,,,DEC015,001,2022_Oct_14_1520,2-25_cond_decay_EYE-try,2021.2.3,119.69974538067778,
left,0.75,1.0,0,1,0,1,0,0,0,0,0,1,9,19,1,,,,,,,,,,,,,,,5s,768.8169197943062,769.816352921538,769.8090003756806,None,770.8083691708744,772.0837680213153,770.8083691708744,772.0837680213153,772.0837680213153,None,772.0837680213153,None,space,0.3266623178496957,772.0837680213153,None,1.2682,772.5421236678958,None,,,,,,,DEC015,001,2022_Oct_14_1520,2-25_cond_decay_EYE-try,2021.2.3,119.69974538067778,
,,,,1,0,1,0,0,0,0,0,,,,,,,,,,,,,,,,,,,,,,,,,,,,,,,,,,,,,,,,,,,,,DEC015,001,2022_Oct_14_1520,2-25_cond_decay_EYE-try,2021.2.3,119.69974538067778,
right,1.0,0.75,0,1,0,1,0,1,0,1,0,0,0,0,5,,,,,,,,,773.4333707699552,None,773.4333707699552,None,773.4333707699552,None,3s,777.7005446041003,778.7006763992831,778.6915883654729,None,779.6916518909857,782.3748734593391,779.6916518909857,782.3748734593391,782.3671548152342,783.3668747097254,782.3671548152342,783.3668747097254,None,,782.3671548152342,783.3668747097254,2.6784,783.5007308134809,None,,,,,,,DEC015,001,2022_Oct_14_1520,2-25_cond_decay_EYE-try,2021.2.3,119.69974538067778,
left,0.75,1.0,0,1,0,1,0,1,0,1,0,0,1,1,0,,,,,,,,,,,,,,,3s,784.550559409894,785.5508272238076,785.5417902441695,None,786.5421306826174,787.5586067344993,786.5421306826174,787.5586067344993,787.5500717777759,None,787.5500717777759,None,space,0.3678634725511074,787.5500717777759,None,1.0133,788.0505770193413,None,,,,,,,DEC015,001,2022_Oct_14_1520,2-25_cond_decay_EYE-try,2021.2.3,119.69974538067778,
left,0.75,1.0,0,1,0,1,0,1,0,1,0,0,2,2,8,,,,,,,,,,,,,,,3s,789.100934650749,790.1003550505266,790.0920462496579,None,791.0920418826863,792.1582213407382,791.0920418826863,792.1582213407382,792.1506614349782,None,792.1506614349782,None,space,0.33345651999115944,792.1506614349782,None,1.061,792.6086017880589,None,,,,,,,DEC015,001,2022_Oct_14_1520,2-25_cond_decay_EYE-try,2021.2.3,119.69974538067778,
right,0.75,1.0,1,1,0,1,0,1,0,1,0,0,3,3,3,,,,,,,,,,,,,,,3s,793.666684881784,794.6673377100378,794.6502708978951,None,795.6501944540069,797.85066234041,795.6501944540069,797.85066234041,797.85066234041,None,797.85066234041,None,space,0.35193541273474693,797.85066234041,None,2.1977,798.3340756604448,None,,,,,,,DEC015,001,2022_Oct_14_1520,2-25_cond_decay_EYE-try,2021.2.3,119.69974538067778,
left,1.0,0.75,1,1,0,1,0,1,0,1,0,0,4,4,6,,,,,,,,,,,,,,,3s,799.3846163423732,800.3840248128399,800.3760028583929,None,801.3758391337469,802.942670352757,801.3758391337469,802.942670352757,802.942670352757,None,802.942670352757,None,space,0.49394634272903204,802.942670352757,None,1.5625,803.5606605382636,None,,,,,,,DEC015,001,2022_Oct_14_1520,2-25_cond_decay_EYE-try,2021.2.3,119.69974538067778,
right,1.0,0.75,0,1,0,1,0,1,0,1,0,0,5,5,1,,,,,,,,,,,,,,,3s,804.626135578379,805.6261870050803,805.6173943672329,None,806.6177359102294,807.8343768687919,806.6177359102294,807.8343768687919,807.8257933417335,None,807.8257933417335,None,space,0.3687596330419183,807.8257933417335,None,1.2128,808.3187603410333,None,,,,,,,DEC015,001,2022_Oct_14_1520,2-25_cond_decay_EYE-try,2021.2.3,119.69974538067778,
left,0.75,1.0,0,1,0,1,0,1,0,1,0,0,6,6,2,,,,,,,,,,,,,,,3s,809.3761487733573,810.3758023986593,810.3676887946203,None,811.3669017776847,813.9092739932239,811.3669017776847,813.9092739932239,813.9092739932239,None,813.9092739932239,None,space,0.2690515052527189,813.9092739932239,None,2.5386,814.3028856255114,None,,,,,,,DEC015,001,2022_Oct_14_1520,2-25_cond_decay_EYE-try,2021.2.3,119.69974538067778,
right,1.0,0.75,0,1,0,1,0,1,0,1,0,0,7,7,7,,,,,,,,,,,,,,,3s,815.3670305684209,816.3670921782032,816.3589720614254,None,817.3588014654815,819.7923929290846,817.3588014654815,819.7923929290846,819.7838928252459,None,819.7838928252459,None,space,0.28458287939429283,819.7838928252459,None,2.4272,820.1923432033509,None,,,,,,,DEC015,001,2022_Oct_14_1520,2-25_cond_decay_EYE-try,2021.2.3,119.69974538067778,
left,0.75,1.0,0,1,0,1,0,1,0,1,0,0,8,8,9,,,,,,,,,,,,,,,3s,821.2590570319444,822.2589937830344,822.2509821765125,None,823.2510360740125,825.7005922514945,823.2510360740125,825.7005922514945,825.692803404294,None,825.692803404294,None,space,0.4354549702256918,825.692803404294,None,2.4461,826.2522897571325,None,,,,,,,DEC015,001,2022_Oct_14_1520,2-25_cond_decay_EYE-try,2021.2.3,119.69974538067778,
right,1.0,0.75,0,1,0,1,0,1,0,1,0,0,9,9,4,,,,,,,,,,,,,,,3s,827.3090155562386,828.3089819084853,828.3008138118312,None,829.3006955813617,831.4506293870509,829.3006955813617,831.4506293870509,831.4506293870509,None,831.4506293870509,None,space,0.2586003551259637,831.4506293870509,None,2.1511,831.8343359688297,None,,,,,,,DEC015,001,2022_Oct_14_1520,2-25_cond_decay_EYE-try,2021.2.3,119.69974538067778,
right,1.0,0.75,0,1,0,1,0,1,0,1,0,1,0,10,7,,,,,,,,,,,,,,,3s,832.8930141972378,833.8928328482434,833.883851387538,None,834.8838033787906,837.6086830347776,834.8838033787906,837.6086830347776,837.6086830347776,None,837.6086830347776,None,space,0.27566913049668074,837.6086830347776,None,2.7252,838.0093388007954,None,,,,,,,DEC015,001,2022_Oct_14_1520,2-25_cond_decay_EYE-try,2021.2.3,119.69974538067778,
right,1.0,0.75,0,1,0,1,0,1,0,1,0,1,1,11,5,,,,,,,,,,,,,,,3s,839.0679824212566,840.067703413777,840.0594842489809,None,841.0592386890203,841.3507006121799,841.0592386890203,841.3507006121799,841.3507006121799,None,841.3507006121799,None,None,,841.3507006121799,None,0.2877,842.4758038632572,None,,,,,,,DEC015,001,2022_Oct_14_1520,2-25_cond_decay_EYE-try,2021.2.3,119.69974538067778,
right,1.0,0.75,0,1,0,1,0,1,0,1,0,1,2,12,4,,,,,,,,,,,,,,,3s,843.5178972072899,844.5179088786244,844.5179088786244,None,845.5175982769579,846.5763603094965,845.5175982769579,846.5763603094965,846.5677141631022,None,846.5677141631022,None,space,0.36037018708884716,846.5677141631022,None,1.052,847.0597950527444,None,,,,,,,DEC015,001,2022_Oct_14_1520,2-25_cond_decay_EYE-try,2021.2.3,119.69974538067778,
left,0.75,1.0,0,1,0,1,0,1,0,1,0,1,3,13,9,,,,,,,,,,,,,,,3s,848.1176981246099,849.1176639171317,849.1095970766619,None,850.1098329136148,852.5094352783635,850.1098329136148,852.5094352783635,852.5008889567107,None,852.5008889567107,None,space,0.2856461899355054,852.5008889567107,None,2.3953,852.909467424266,None,,,,,,,DEC015,001,2022_Oct_14_1520,2-25_cond_decay_EYE-try,2021.2.3,119.69974538067778,
left,0.75,1.0,0,1,0,1,0,1,0,1,0,1,4,14,2,,,,,,,,,,,,,,,3s,853.9680175697431,854.9677861733362,854.9596266644076,None,855.959320768714,858.9506551939994,855.959320768714,858.9506551939994,858.9506551939994,None,858.9506551939994,None,space,0.25965243577957153,858.9506551939994,None,2.991,859.3345126109198,None,,,,,,,DEC015,001,2022_Oct_14_1520,2-25_cond_decay_EYE-try,2021.2.3,119.69974538067778,
right,0.75,1.0,1,1,0,1,0,1,0,1,0,1,5,15,3,,,,,,,,,,,,,,,3s,860.3944135978818,861.4012773176655,861.3930161418393,None,862.3930558934808,864.0011271899566,862.3930558934808,864.0011271899566,863.9927842607722,None,863.9927842607722,None,space,0.4418168729171157,863.9927842607722,None,1.6022,864.5592594472691,None,,,,,,,DEC015,001,2022_Oct_14_1520,2-25_cond_decay_EYE-try,2021.2.3,119.69974538067778,
left,1.0,0.75,1,1,0,1,0,1,0,1,0,1,6,16,6,,,,,,,,,,,,,,,3s,865.619327022694,866.6263843253255,866.6182746561244,None,867.618289725855,869.3429456064478,867.618289725855,869.3429456064478,869.3345364984125,None,869.3345364984125,None,space,0.34242753125727177,869.3345364984125,None,1.7225,869.801771113649,None,,,,,,,DEC015,001,2022_Oct_14_1520,2-25_cond_decay_EYE-try,2021.2.3,119.69974538067778,
left,0.75,1.0,0,1,0,1,0,1,0,1,0,1,7,17,8,,,,,,,,,,,,,,,3s,870.860176964663,871.8593911314383,871.8512094598264,None,872.851363716647,874.8263045903295,872.851363716647,874.8263045903295,874.818485410884,None,874.818485410884,None,space,0.2855076501145959,874.818485410884,None,1.9677,875.2275288691744,None,,,,,,,DEC015,001,2022_Oct_14_1520,2-25_cond_decay_EYE-try,2021.2.3,119.69974538067778,
left,0.75,1.0,0,1,0,1,0,1,0,1,0,1,8,18,0,,,,,,,,,,,,,,,3s,876.2843434512615,877.2843540869653,877.2769203437492,None,878.2766932984814,878.826263282448,878.2766932984814,878.826263282448,878.826263282448,None,878.826263282448,None,space,0.33619113080203533,878.826263282448,None,0.5504,879.2935417424887,None,,,,,,,DEC015,001,2022_Oct_14_1520,2-25_cond_decay_EYE-try,2021.2.3,119.69974538067778,
right,1.0,0.75,0,1,0,1,0,1,0,1,0,1,9,19,1,,,,,,,,,,,,,,,3s,880.3446772256866,881.3512541037053,881.3351452462375,None,882.3350196573883,882.5342361619696,882.3350196573883,882.5342361619696,882.5342361619696,None,882.5342361619696,None,space,0.32557421643286943,882.5342361619696,None,0.1981,882.9846005123109,None,,,,,,,DEC015,001,2022_Oct_14_1520,2-25_cond_decay_EYE-try,2021.2.3,119.69974538067778,
,,,,1,0,1,0,1,0,1,0,,,,,,,,,,,,,,,,,,,,,,,,,,,,,,,,,,,,,,,,,,,,,DEC015,001,2022_Oct_14_1520,2-25_cond_decay_EYE-try,2021.2.3,119.69974538067778,
left,0.75,1.0,0,1,0,1,0,2,0,2,0,0,0,0,0,,,,,,,,,883.8846916174516,None,883.8846916174516,None,883.8846916174516,None,1s,888.4521376471967,889.4519510623068,889.4428764497861,None,890.4426139267161,890.9763534981757,890.4426139267161,890.9763534981757,890.9763534981757,None,890.9763534981757,None,space,0.2502567805349827,890.9763534981757,None,0.5294,891.353222318925,None,,,,,,,DEC015,001,2022_Oct_14_1520,2-25_cond_decay_EYE-try,2021.2.3,119.69974538067778,
left,0.75,1.0,0,1,0,1,0,2,0,2,0,0,1,1,6,,,,,,,,,,,,,,,1s,892.4095770223066,893.4099336396903,893.4016052493826,None,894.4016455570236,895.3433816144243,894.4016455570236,895.3433816144243,895.3433816144243,None,895.3433816144243,None,space,0.3004655037075281,895.3433816144243,None,0.9402,895.7679573073983,None,,,,,,,DEC015,001,2022_Oct_14_1520,2-25_cond_decay_EYE-try,2021.2.3,119.69974538067778,
left,0.75,1.0,0,1,0,1,0,2,0,2,0,0,2,2,2,,,,,,,,,,,,,,,1s,896.8266784241423,897.8260137727484,897.818143251352,None,898.8178178146482,899.8178456379101,898.8178178146482,899.8178456379101,899.8103568609804,None,899.8103568609804,None,space,0.28523581475019455,899.8103568609804,None,0.9966,900.2267771158367,None,,,,,,,DEC015,001,2022_Oct_14_1520,2-25_cond_decay_EYE-try,2021.2.3,119.69974538067778,
right,1.0,0.75,0,1,0,1,0,2,0,2,0,0,3,3,8,,,,,,,,,,,,,,,1s,901.2848936077207,902.2849532738328,902.2771171219647,None,903.2686076210812,904.0852052932605,903.2686076210812,904.0852052932605,904.0852052932605,None,904.0852052932605,None,space,0.2521779742091894,904.0852052932605,None,0.8138,904.468922005035,None,,,,,,,DEC015,001,2022_Oct_14_1520,2-25_cond_decay_EYE-try,2021.2.3,119.69974538067778,
left,0.75,1.0,0,1,0,1,0,2,0,2,0,0,4,4,1,,,,,,,,,,,,,,,1s,905.5266689676791,906.5270580518991,906.5178791992366,None,907.517836519517,908.1437980635092,907.517836519517,908.1437980635092,908.1437980635092,None,908.1437980635092,None,space,0.26082514226436615,908.1437980635092,None,0.6262,908.5349227916449,None,,,,,,,DEC015,001,2022_Oct_14_1520,2-25_cond_decay_EYE-try,2021.2.3,119.69974538067778,
right,1.0,0.75,0,1,0,1,0,2,0,2,0,0,5,5,4,,,,,,,,,,,,,,,1s,909.5929754087701,910.593163061887,910.5848587853834,None,911.5845361957327,911.9596137087792,911.5845361957327,911.9596137087792,911.9518191702664,None,911.9518191702664,None,space,0.3278072318062186,911.9518191702664,None,0.3689,912.4031529352069,None,,,,,,,DEC015,001,2022_Oct_14_1520,2-25_cond_decay_EYE-try,2021.2.3,119.69974538067778,
right,1.0,0.75,0,1,0,1,0,2,0,2,0,0,6,6,3,,,,,,,,,,,,,,,1s,913.4599246261641,914.4600129183382,914.4517449755222,None,915.4597587948665,915.693669793196,915.4597587948665,915.693669793196,915.6852339897305,None,915.6852339897305,None,space,0.2941856887191534,915.6852339897305,None,0.2264,916.1101373452693,None,,,,,,,DEC015,001,2022_Oct_14_1520,2-25_cond_decay_EYE-try,2021.2.3,119.69974538067778,
left,1.0,0.75,1,1,0,1,0,2,0,2,0,0,7,7,5,,,,,,,,,,,,,,,1s,917.1616674289107,918.1687593441457,918.1603480558842,None,919.1599443247542,920.0855700466782,919.1599443247542,920.0855700466782,920.076885772869,None,920.076885772869,None,space,0.36657871305942535,920.076885772869,None,0.9235,920.5688614631072,None,,,,,,,DEC015,001,2022_Oct_14_1520,2-25_cond_decay_EYE-try,2021.2.3,119.69974538067778,
right,1.0,0.75,0,1,0,1,0,2,0,2,0,0,8,8,7,,,,,,,,,,,,,,,1s,921.6272310046479,922.6269899094477,922.6180527294055,None,923.6185807660222,923.8014945192263,923.6185807660222,923.8014945192263,923.8014945192263,None,923.8014945192263,None,space,0.3278837623074651,923.8014945192263,None,0.1798,924.2596970070153,None,,,,,,,DEC015,001,2022_Oct_14_1520,2-25_cond_decay_EYE-try,2021.2.3,119.69974538067778,
left,0.75,1.0,0,1,0,1,0,2,0,2,0,0,9,9,9,,,,,,,,,,,,,,,1s,925.3185298694298,926.3188399756327,926.3105251640081,None,927.3104880787432,927.5936337262392,927.3104880787432,927.5936337262392,927.5850209761411,None,927.5850209761411,None,space,0.2841382883489132,927.5850209761411,None,0.2768,927.9932134281844,None,,,,,,,DEC015,001,2022_Oct_14_1520,2-25_cond_decay_EYE-try,2021.2.3,119.69974538067778,
right,1.0,0.75,0,1,0,1,0,2,0,2,0,1,0,10,7,,,,,,,,,,,,,,,1s,929.0606249421835,930.0597097463906,930.0439615184441,None,931.043467300944,931.3435862967744,931.043467300944,931.3435862967744,931.3435862967744,None,931.3435862967744,None,space,0.23606214113533497,931.3435862967744,None,0.2984,931.71077556815,None,,,,,,,DEC015,001,2022_Oct_14_1520,2-25_cond_decay_EYE-try,2021.2.3,119.69974538067778,
right,0.75,1.0,1,1,0,1,0,2,0,2,0,1,1,11,0,,,,,,,,,,,,,,,1s,932.760519250296,933.76075753849,933.7525057420135,None,934.7514645308256,935.0016769450158,934.7514645308256,935.0016769450158,934.9938794448972,None,934.9938794448972,None,space,0.26953195221722126,934.9938794448972,None,0.2442,935.3935538828373,None,,,,,,,DEC015,001,2022_Oct_14_1520,2-25_cond_decay_EYE-try,2021.2.3,119.69974538067778,
right,1.0,0.75,0,1,0,1,0,2,0,2,0,1,2,12,4,,,,,,,,,,,,,,,1s,936.4435002049431,937.4437030004337,937.4356539109722,None,938.4353971565142,939.27660645172,938.4353971565142,939.27660645172,939.2688560597599,None,939.2688560597599,None,space,0.27781949006021023,939.2688560597599,None,0.8353,939.67747047171,None,,,,,,,DEC015,001,2022_Oct_14_1520,2-25_cond_decay_EYE-try,2021.2.3,119.69974538067778,
left,0.75,1.0,0,1,0,1,0,2,0,2,0,1,3,13,9,,,,,,,,,,,,,,,1s,940.7357003241777,941.7354667643085,941.7272760691121,None,942.7272420851514,943.5853777676821,942.7272420851514,943.5853777676821,943.5853777676821,None,943.5853777676821,None,space,0.28436334524303675,943.5853777676821,None,0.857,943.9939334308729,None,,,,,,,DEC015,001,2022_Oct_14_1520,2-25_cond_decay_EYE-try,2021.2.3,119.69974538067778,
left,0.75,1.0,0,1,0,1,0,2,0,2,0,1,4,14,1,,,,,,,,,,,,,,,1s,945.051839963533,946.0515888500959,946.0436096759513,None,947.0434767929837,947.2520716497675,947.0434767929837,947.2520716497675,947.2520716497675,None,947.2520716497675,None,space,0.3194569842889905,947.2520716497675,None,0.2073,947.7018647864461,None,,,,,,,DEC015,001,2022_Oct_14_1520,2-25_cond_decay_EYE-try,2021.2.3,119.69974538067778,
left,0.75,1.0,0,1,0,1,0,2,0,2,0,1,5,15,6,,,,,,,,,,,,,,,1s,948.7523587737232,949.752427238971,949.7434512609616,None,950.7441686438397,950.9359256736934,950.7441686438397,950.9359256736934,950.9272933676839,None,950.9272933676839,None,space,0.31695726700127125,950.9272933676839,None,0.1851,951.3690335880965,None,,,,,,,DEC015,001,2022_Oct_14_1520,2-25_cond_decay_EYE-try,2021.2.3,119.69974538067778,
right,1.0,0.75,0,1,0,1,0,2,0,2,0,1,6,16,3,,,,,,,,,,,,,,,1s,952.427622385323,953.4350126087666,953.4106520591304,None,954.4105397397652,954.6354300696403,954.4105397397652,954.6354300696403,954.6354300696403,None,954.6354300696403,None,space,0.3271529842168093,954.6354300696403,None,0.2215,955.086871560663,None,,,,,,,DEC015,001,2022_Oct_14_1520,2-25_cond_decay_EYE-try,2021.2.3,119.69974538067778,
left,0.75,1.0,0,1,0,1,0,2,0,2,0,1,7,17,2,,,,,,,,,,,,,,,1s,956.1524549722672,957.1521419333294,957.1439983174205,None,958.1433666562662,958.918405348435,958.1433666562662,958.918405348435,958.9110487252474,None,958.9110487252474,None,space,0.27468138467520475,958.9110487252474,None,0.7697,959.3101943479851,None,,,,,,,DEC015,001,2022_Oct_14_1520,2-25_cond_decay_EYE-try,2021.2.3,119.69974538067778,
left,1.0,0.75,1,1,0,1,0,2,0,2,0,1,8,18,5,,,,,,,,,,,,,,,1s,960.3686516387388,961.36933805421,961.3521631322801,None,962.3522138483822,963.0019524889067,962.3522138483822,963.0019524889067,963.0019524889067,None,963.0019524889067,None,space,0.2776881391182542,963.0019524889067,None,0.6502,963.4107153909281,None,,,,,,,DEC015,001,2022_Oct_14_1520,2-25_cond_decay_EYE-try,2021.2.3,119.69974538067778,
right,1.0,0.75,0,1,0,1,0,2,0,2,0,1,9,19,8,,,,,,,,,,,,,,,1s,964.4692041361704,965.4686322864145,965.4516941672191,None,966.4524619579315,966.6525884661824,966.4524619579315,966.6525884661824,966.6525884661824,None,966.6525884661824,None,space,0.2938620811328292,966.6525884661824,None,0.1955,967.0775163080543,None,,,,,,,DEC015,001,2022_Oct_14_1520,2-25_cond_decay_EYE-try,2021.2.3,119.69974538067778,
,,,,1,0,1,0,2,0,2,0,,,,,,,,,,,,,,,,,,,,,,,,,,,,,,,,,,,,,,,,,,,,,DEC015,001,2022_Oct_14_1520,2-25_cond_decay_EYE-try,2021.2.3,119.69974538067778,
left,0.75,1.0,0,1,0,1,0,3,0,3,0,0,0,0,1,,,,,,,,,967.9693208849058,None,967.9693208849058,None,967.9693208849058,None,10s,974.1442849244922,975.144196132198,975.1356280203909,None,976.1355102751404,985.752541099675,976.1355102751404,985.752541099675,985.752541099675,None,985.752541099675,None,space,0.29227031860500574,985.752541099675,None,9.6158,986.1705468324944,None,,,,,,,DEC015,001,2022_Oct_14_1520,2-25_cond_decay_EYE-try,2021.2.3,119.69974538067778,
left,0.75,1.0,0,1,0,1,0,3,0,3,0,0,1,1,5,,,,,,,,,,,,,,,10s,987.2192320981994,988.2189682740718,988.2106344103813,None,989.2103716349229,995.0528827207163,989.2103716349229,995.0528827207163,995.0609451727942,None,995.0609451727942,None,space,0.29371767677366734,995.0609451727942,None,5.8425,995.4791568554938,None,,,,,,,DEC015,001,2022_Oct_14_1520,2-25_cond_decay_EYE-try,2021.2.3,119.69974538067778,
right,1.0,0.75,0,1,0,1,0,3,0,3,0,0,2,2,6,,,,,,,,,,,,,,,10s,996.5356312450022,997.5358829051256,997.5275609847158,None,998.5276678521186,1006.5528980987146,998.5276678521186,1006.5528980987146,1006.5528980987146,None,1006.5528980987146,None,space,0.30250740330666304,1006.5528980987146,None,8.02,1006.9862203812227,None,,,,,,,DEC015,001,2022_Oct_14_1520,2-25_cond_decay_EYE-try,2021.2.3,119.69974538067778,
left,0.75,1.0,0,1,0,1,0,3,0,3,0,0,3,3,2,,,,,,,,,,,,,,,10s,1008.0444978186861,1009.0445526968688,1009.0359122054651,None,1010.0357801867649,1010.4441898930818,1010.0357801867649,1010.4441898930818,1010.4441898930818,None,1010.4441898930818,None,space,0.9672441007569432,1010.4441898930818,None,0.4092,1011.53626288753,None,,,,,,,DEC015,001,2022_Oct_14_1520,2-25_cond_decay_EYE-try,2021.2.3,119.69974538067778,
right,0.75,1.0,1,1,0,1,0,3,0,3,0,0,4,4,0,,,,,,,,,,,,,,,10s,1012.5945925731212,1013.5946489479393,1013.5781629411504,None,1014.5774224800989,1017.4196853069589,1014.5774224800989,1017.4196853069589,1017.4196853069589,None,1017.4196853069589,None,space,0.42519555054605007,1017.4196853069589,None,2.8412,1017.969720046036,None,,,,,,,DEC015,001,2022_Oct_14_1520,2-25_cond_decay_EYE-try,2021.2.3,119.69974538067778,
right,1.0,0.75,0,1,0,1,0,3,0,3,0,0,5,5,9,,,,,,,,,,,,,,,10s,1019.0279818559065,1020.0278570940718,1020.0190338101238,None,1021.0193868186325,1024.6526289759204,1021.0193868186325,1024.6526289759204,1024.6526289759204,None,1024.6526289759204,None,space,0.3256796319037676,1024.6526289759204,None,3.6347,1025.1025239732116,None,,,,,,,DEC015,001,2022_Oct_14_1520,2-25_cond_decay_EYE-try,2021.2.3,119.69974538067778,
right,1.0,0.75,0,1,0,1,0,3,0,3,0,0,6,6,3,,,,,,,,,,,,,,,10s,1026.1614914108068,1027.1614784915,1027.1614784915,None,1028.161411547102,1031.9111699061468,1028.161411547102,1031.9111699061468,1031.9111699061468,1032.911494396627,1031.9111699061468,1032.911494396627,None,,1031.9111699061468,1032.911494396627,3.7507,1033.044890716672,None,,,,,,,DEC015,001,2022_Oct_14_1520,2-25_cond_decay_EYE-try,2021.2.3,119.69974538067778,
left,1.0,0.75,1,1,0,1,0,3,0,3,0,0,7,7,4,,,,,,,,,,,,,,,10s,1034.1025227867067,1035.1034143716097,1035.0945076290518,None,1036.0944601772353,1044.5947857443243,1036.0944601772353,1044.5947857443243,1044.5862820688635,None,1044.5862820688635,None,space,0.6940078288316727,1044.5862820688635,None,8.4932,1045.4115514270961,None,,,,,,,DEC015,001,2022_Oct_14_1520,2-25_cond_decay_EYE-try,2021.2.3,119.69974538067778,
right,1.0,0.75,0,1,0,1,0,3,0,3,0,0,8,8,7,,,,,,,,,,,,,,,10s,1046.469625223428,1047.4694100935012,1047.4531650934368,None,1048.453271696344,1054.1862122537568,1048.453271696344,1054.1862122537568,1054.1784526072443,None,1054.1784526072443,None,space,0.3694719038903713,1054.1784526072443,None,5.7263,1054.6777822272852,None,,,,,,,DEC015,001,2022_Oct_14_1520,2-25_cond_decay_EYE-try,2021.2.3,119.69974538067778,
left,0.75,1.0,0,1,0,1,0,3,0,3,0,0,9,9,8,,,,,,,,,,,,,,,10s,1055.7284837458283,1056.7284407941625,1056.7194208810106,None,1057.7200624486431,1064.6782064344734,1057.7200624486431,1064.6782064344734,1064.6782064344734,None,1064.6782064344734,None,space,0.33412605058401823,1064.6782064344734,None,6.9532,1065.1367439562455,None,,,,,,,DEC015,001,2022_Oct_14_1520,2-25_cond_decay_EYE-try,2021.2.3,119.69974538067778,
right,1.0,0.75,0,1,0,1,0,3,0,3,0,1,0,10,7,,,,,,,,,,,,,,,10s,1066.1947354320437,1067.1953169070184,1067.1864043930545,None,1068.1861056797206,1073.969631485641,1068.1861056797206,1073.969631485641,1073.969631485641,None,1073.969631485641,None,space,0.31995877996087074,1073.969631485641,None,5.7816,1074.4204214634374,None,,,,,,,DEC015,001,2022_Oct_14_1520,2-25_cond_decay_EYE-try,2021.2.3,119.69974538067778,
left,0.75,1.0,0,1,0,1,0,3,0,3,0,1,1,11,2,,,,,,,,,,,,,,,10s,1075.4781076330692,1076.47863917239,1076.4696689518169,None,1077.46996998135,1085.7703783046454,1077.46996998135,1085.7703783046454,1085.7617652751505,None,1085.7617652751505,None,space,0.31964802276343107,1085.7617652751505,None,8.2959,1086.2048006476834,None,,,,,,,DEC015,001,2022_Oct_14_1520,2-25_cond_decay_EYE-try,2021.2.3,119.69974538067778,
left,0.75,1.0,0,1,0,1,0,3,0,3,0,1,2,12,5,,,,,,,,,,,,,,,10s,1087.2618683353066,1088.2618880663067,1088.2539656376466,None,1089.2535292794928,1096.2288606492803,1089.2535292794928,1096.2288606492803,1096.2288606492803,None,1096.2288606492803,None,space,0.28590817004442215,1096.2288606492803,None,6.9752,1096.6385379331186,None,,,,,,,DEC015,001,2022_Oct_14_1520,2-25_cond_decay_EYE-try,2021.2.3,119.69974538067778,
right,0.75,1.0,1,1,0,1,0,3,0,3,0,1,3,13,0,,,,,,,,,,,,,,,10s,1097.7037565959617,1098.7035588501021,1098.6952732326463,None,1099.6955009782687,1103.7282999120653,1099.6955009782687,1103.7282999120653,1103.7282999120653,None,1103.7282999120653,None,space,0.4112943075597286,1103.7282999120653,None,4.0293,1104.2705623339862,None,,,,,,,DEC015,001,2022_Oct_14_1520,2-25_cond_decay_EYE-try,2021.2.3,119.69974538067778,
right,1.0,0.75,0,1,0,1,0,3,0,3,0,1,4,14,3,,,,,,,,,,,,,,,10s,1105.3209887221456,1106.3286077221856,1106.3115813154727,None,1107.3125980785117,1109.4953321497887,1107.3125980785117,1109.4953321497887,1109.4873971017078,None,1109.4873971017078,None,space,0.38613462913781404,1109.4873971017078,None,2.1808,1110.003870937042,None,,,,,,,DEC015,001,2022_Oct_14_1520,2-25_cond_decay_EYE-try,2021.2.3,119.69974538067778,
left,0.75,1.0,0,1,0,1,0,3,0,3,0,1,5,15,8,,,,,,,,,,,,,,,10s,1111.0625227773562,1112.0623333528638,1112.045109288767,None,1113.045619388111,1115.8790763281286,1113.045619388111,1115.8790763281286,1115.8790763281286,None,1115.8790763281286,None,space,0.34195916820317507,1115.8790763281286,None,2.8285,1116.3472385387868,None,,,,,,,DEC015,001,2022_Oct_14_1520,2-25_cond_decay_EYE-try,2021.2.3,119.69974538067778,
left,0.75,1.0,0,1,0,1,0,3,0,3,0,1,6,16,1,,,,,,,,,,,,,,,10s,1117.3969275513664,1118.4036199683324,1118.3953154766932,None,1119.3955344920978,1124.4451260827482,1119.3955344920978,1124.4451260827482,1124.4451260827482,None,1124.4451260827482,None,space,0.38390146382153034,1124.4451260827482,None,5.0487,1124.9541270583868,None,,,,,,,DEC015,001,2022_Oct_14_1520,2-25_cond_decay_EYE-try,2021.2.3,119.69974538067778,
left,1.0,0.75,1,1,0,1,0,3,0,3,0,1,7,17,4,,,,,,,,,,,,,,,10s,1126.0128007084131,1127.0123588507995,1127.0042891111225,None,1128.0042471243069,1135.0377984801307,1128.0042471243069,1135.0377984801307,1135.0291048223153,None,1135.0291048223153,None,space,0.3916527330875397,1135.0291048223153,None,7.0294,1135.5456627933308,None,,,,,,,DEC015,001,2022_Oct_14_1520,2-25_cond_decay_EYE-try,2021.2.3,119.69974538067778,
right,1.0,0.75,0,1,0,1,0,3,0,3,0,1,8,18,6,,,,,,,,,,,,,,,10s,1136.604354201816,1137.6042786054313,1137.595976561308,None,1138.5952913453802,1142.5461372407153,1138.5952913453802,1142.5461372407153,1142.5461372407153,None,1142.5461372407153,None,space,0.3687960933893919,1142.5461372407153,None,3.951,1143.0387208741158,None,,,,,,,DEC015,001,2022_Oct_14_1520,2-25_cond_decay_EYE-try,2021.2.3,119.69974538067778,
right,1.0,0.75,0,1,0,1,0,3,0,3,0,1,9,19,9,,,,,,,,,,,,,,,10s,1144.088621892035,1145.0957078272477,1145.0875390553847,None,1146.087716255337,1147.2463350770995,1146.087716255337,1147.2463350770995,1147.2377816708758,None,1147.2377816708758,None,space,0.3859288292005658,1147.2377816708758,None,1.153,1147.7544601839036,None,,,,,,,DEC015,001,2022_Oct_14_1520,2-25_cond_decay_EYE-try,2021.2.3,119.69974538067778,
,,,,1,0,1,0,3,0,3,0,,,,,,,,,,,,,,,,,,,,,,,,,,,,,,,,,,,,,,,,,,,,,DEC015,001,2022_Oct_14_1520,2-25_cond_decay_EYE-try,2021.2.3,119.69974538067778,
,,,,1,0,1,0,,,,,,,,,,,,,,,,,,,,,,,,,,,,,,,,,,,,,,,,,,,1148.6456932434812,None,1148.6456932434812,None,1148.6456932434812,None,DEC015,001,2022_Oct_14_1520,2-25_cond_decay_EYE-try,2021.2.3,119.69974538067778,
left,0.75,1.0,0,2,0,2,0,0,0,0,0,0,0,0,1,,,,,,,,,1153.6460909992456,None,1153.6460909992456,None,1153.6460909992456,None,10s,1171.4892402188852,1172.495943092741,1172.4795348457992,None,1173.47962635383,1181.1048829304054,1173.47962635383,1181.1048829304054,1181.1048829304054,None,1181.1048829304054,None,space,0.3354270402342081,1181.1048829304054,None,7.622,1181.5708513967693,None,,,,,,,DEC015,001,2022_Oct_14_1520,2-25_cond_decay_EYE-try,2021.2.3,119.69974538067778,
right,1.0,0.75,0,2,0,2,0,0,0,0,0,0,1,1,9,,,,,,,,,,,,,,,10s,1182.6296500321478,1183.6293407417834,1183.6133299544454,None,1184.612516419962,1193.6634150687605,1184.612516419962,1193.6634150687605,1193.6634150687605,None,1193.6634150687605,None,space,0.34174247086048126,1193.6634150687605,None,9.0506,1194.1299598542973,None,,,,,,,DEC015,001,2022_Oct_14_1520,2-25_cond_decay_EYE-try,2021.2.3,119.69974538067778,
left,0.75,1.0,0,2,0,2,0,0,0,0,0,0,2,2,8,,,,,,,,,,,,,,,10s,1195.19612458162,1196.1965990597382,1196.188319111243,None,1197.188331682235,1197.4216506583616,1197.188331682235,1197.4216506583616,1197.4131778543815,None,1197.4131778543815,None,space,0.4191184928640723,1197.4131778543815,None,0.2266,1197.9561510179192,None,,,,,,,DEC015,001,2022_Oct_14_1520,2-25_cond_decay_EYE-try,2021.2.3,119.69974538067778,
left,0.75,1.0,0,2,0,2,0,0,0,0,0,0,3,3,5,,,,,,,,,,,,,,,10s,1199.0134944757447,1200.0130958547816,1200.0047703161836,None,1201.0043417699635,1204.7802852261811,1201.0043417699635,1204.7802852261811,1204.7802852261811,None,1204.7802852261811,None,space,0.39966962579637766,1204.7802852261811,None,3.7752,1205.3051777146757,None,,,,,,,DEC015,001,2022_Oct_14_1520,2-25_cond_decay_EYE-try,2021.2.3,119.69974538067778,
left,1.0,0.75,1,2,0,2,0,0,0,0,0,0,4,4,3,,,,,,,,,,,,,,,10s,1206.3626528354362,1207.363404055126,1207.3553967624903,None,1208.3551113670692,1215.5714087830856,1208.3551113670692,1215.5714087830856,1215.5714087830856,None,1215.5714087830856,None,space,0.8336819354444742,1215.5714087830856,None,7.2175,1216.5301534887403,None,,,,,,,DEC015,001,2022_Oct_14_1520,2-25_cond_decay_EYE-try,2021.2.3,119.69974538067778,
right,1.0,0.75,0,2,0,2,0,0,0,0,0,0,5,5,0,,,,,,,,,,,,,,,10s,1217.5971219548956,1218.5962936393917,1218.5800819667056,None,1219.580105512403,1228.522132864222,1219.580105512403,1228.522132864222,1228.522132864222,None,1228.522132864222,None,space,0.30998825281858444,1228.522132864222,None,8.9357,1228.9629479395226,None,,,,,,,DEC015,001,2022_Oct_14_1520,2-25_cond_decay_EYE-try,2021.2.3,119.69974538067778,
right,1.0,0.75,0,2,0,2,0,0,0,0,0,0,6,6,7,,,,,,,,,,,,,,,10s,1230.0135253639892,1231.0137692857534,1231.005408721976,None,1232.0052458364516,1238.0048932190984,1232.0052458364516,1238.0048932190984,1238.0048932190984,None,1238.0048932190984,None,space,0.4355574166402221,1238.0048932190984,None,5.9987,1238.5648861350492,None,,,,,,,DEC015,001,2022_Oct_14_1520,2-25_cond_decay_EYE-try,2021.2.3,119.69974538067778,
right,0.75,1.0,1,2,0,2,0,0,0,0,0,0,7,7,4,,,,,,,,,,,,,,,10s,1239.6215214552358,1240.6219364600256,1240.6136297276244,None,1241.6138173928484,1245.688878659159,1241.6138173928484,1245.688878659159,1245.6803221460432,None,1245.6803221460432,None,space,0.3770976448431611,1245.6803221460432,None,4.0695,1246.1816782057285,None,,,,,,,DEC015,001,2022_Oct_14_1520,2-25_cond_decay_EYE-try,2021.2.3,119.69974538067778,
right,1.0,0.75,0,2,0,2,0,0,0,0,0,0,8,8,2,,,,,,,,,,,,,,,10s,1247.2402564371005,1248.246712599881,1248.2386403894052,None,1249.2382893525064,1252.305304614827,1249.2382893525064,1252.305304614827,1252.305304614827,None,1252.305304614827,None,space,0.3860377036035061,1252.305304614827,None,3.066,1252.822308092378,None,,,,,,,DEC015,001,2022_Oct_14_1520,2-25_cond_decay_EYE-try,2021.2.3,119.69974538067778,
left,0.75,1.0,0,2,0,2,0,0,0,0,0,0,9,9,6,,,,,,,,,,,,,,,10s,1253.8721268801019,1254.871866072528,1254.8557837838307,None,1255.8555897837505,1259.3218965418637,1255.8555897837505,1259.3218965418637,1259.3218965418637,None,1259.3218965418637,None,space,0.352738069370389,1259.3218965418637,None,3.4638,1259.7981825666502,None,,,,,,,DEC015,001,2022_Oct_14_1520,2-25_cond_decay_EYE-try,2021.2.3,119.69974538067778,
left,0.75,1.0,0,2,0,2,0,0,0,0,0,1,0,10,8,,,,,,,,,,,,,,,10s,1260.8561509074643,1261.8556253388524,1261.8556253388524,None,1262.8557035699487,1264.505489455536,1262.8557035699487,1264.505489455536,1264.496873899363,None,1264.496873899363,None,space,0.40293824579566717,1264.496873899363,None,1.6429,1265.0229398217052,None,,,,,,,DEC015,001,2022_Oct_14_1520,2-25_cond_decay_EYE-try,2021.2.3,119.69974538067778,
right,1.0,0.75,0,2,0,2,0,0,0,0,0,1,1,11,7,,,,,,,,,,,,,,,10s,1266.0814533634111,1267.080819196999,1267.080819196999,None,1268.080590791069,1275.9055167520419,1268.080590791069,1275.9055167520419,1275.8968928456306,None,1275.8968928456306,None,space,0.3944608084857464,1275.8968928456306,None,7.8229,1276.422230616212,None,,,,,,,DEC015,001,2022_Oct_14_1520,2-25_cond_decay_EYE-try,2021.2.3,119.69974538067778,
right,0.75,1.0,1,2,0,2,0,0,0,0,0,1,2,12,4,,,,,,,,,,,,,,,10s,1277.4718929314986,1278.4723430136219,1278.4640563772991,None,1279.4634308302775,1284.7134850863367,1279.4634308302775,1284.7134850863367,1284.7134850863367,None,1284.7134850863367,None,space,0.37816214468330145,1284.7134850863367,None,5.2485,1285.2221744582057,None,,,,,,,DEC015,001,2022_Oct_14_1520,2-25_cond_decay_EYE-try,2021.2.3,119.69974538067778,
right,1.0,0.75,0,2,0,2,0,0,0,0,0,1,3,13,9,,,,,,,,,,,,,,,10s,1286.2727981200442,1287.2725298125297,1287.263583834283,None,1288.2643197327852,1297.122748348862,1288.2643197327852,1297.122748348862,1297.122748348862,None,1297.122748348862,None,space,0.3189072897657752,1297.122748348862,None,8.8561,1297.572006384842,None,,,,,,,DEC015,001,2022_Oct_14_1520,2-25_cond_decay_EYE-try,2021.2.3,119.69974538067778,
right,1.0,0.75,0,2,0,2,0,0,0,0,0,1,4,14,0,,,,,,,,,,,,,,,10s,1298.6225094972178,1299.622344727628,1299.6138051804155,None,1300.6142349131405,1302.6723124217242,1300.6142349131405,1302.6723124217242,1302.6638662852347,None,1302.6638662852347,None,space,0.34399187564849854,1302.6638662852347,None,2.0536,1303.139203203842,None,,,,,,,DEC015,001,2022_Oct_14_1520,2-25_cond_decay_EYE-try,2021.2.3,119.69974538067778,
right,1.0,0.75,0,2,0,2,0,0,0,0,0,1,5,15,2,,,,,,,,,,,,,,,10s,1304.1889439504594,1305.1894773012027,1305.1810878086835,None,1306.1802858933806,1312.6639855839312,1306.1802858933806,1312.6639855839312,1312.6639855839312,None,1312.6639855839312,None,space,0.328057280741632,1312.6639855839312,None,6.4801,1313.1227363720536,None,,,,,,,DEC015,001,2022_Oct_14_1520,2-25_cond_decay_EYE-try,2021.2.3,119.69974538067778,
left,0.75,1.0,0,2,0,2,0,0,0,0,0,1,6,16,6,,,,,,,,,,,,,,,10s,1314.17313197162,1315.1730693327263,1315.1648232107982,None,1316.1643625283614,1319.0981279201806,1316.1643625283614,1319.0981279201806,1319.0981279201806,None,1319.0981279201806,None,space,0.4744714992120862,1319.0981279201806,None,2.9327,1319.697794958949,None,,,,,,,DEC015,001,2022_Oct_14_1520,2-25_cond_decay_EYE-try,2021.2.3,119.69974538067778,
left,1.0,0.75,1,2,0,2,0,0,0,0,0,1,7,17,3,,,,,,,,,,,,,,,10s,1320.7563767777756,1321.7560135498643,1321.7472160747275,None,1322.7481690356508,1330.5723444251344,1322.7481690356508,1330.5723444251344,1330.564612925984,None,1330.564612925984,None,space,0.35896246042102575,1330.564612925984,None,7.8216,1331.0480254609138,None,,,,,,,DEC015,001,2022_Oct_14_1520,2-25_cond_decay_EYE-try,2021.2.3,119.69974538067778,
left,0.75,1.0,0,2,0,2,0,0,0,0,0,1,8,18,5,,,,,,,,,,,,,,,10s,1332.1073427256197,1333.1141601391137,1333.1063227802515,None,1334.1056700553745,1342.29755026754,1334.1056700553745,1342.29755026754,1342.2900825385004,None,1342.2900825385004,None,space,0.3605362642556429,1342.2900825385004,None,8.1891,1342.7814808208495,None,,,,,,,DEC015,001,2022_Oct_14_1520,2-25_cond_decay_EYE-try,2021.2.3,119.69974538067778,
left,0.75,1.0,0,2,0,2,0,0,0,0,0,1,9,19,1,,,,,,,,,,,,,,,10s,1343.8312644083053,1344.8309923186898,1344.8230221047997,None,1345.8228837391362,1353.4227457335219,1345.8228837391362,1353.4227457335219,1353.4227457335219,None,1353.4227457335219,None,space,0.33676719572395086,1353.4227457335219,None,7.5988,1353.8893009359017,None,,,,,,,DEC015,001,2022_Oct_14_1520,2-25_cond_decay_EYE-try,2021.2.3,119.69974538067778,
,,,,2,0,2,0,0,0,0,0,,,,,,,,,,,,,,,,,,,,,,,,,,,,,,,,,,,,,,,,,,,,,DEC015,001,2022_Oct_14_1520,2-25_cond_decay_EYE-try,2021.2.3,119.69974538067778,
left,0.75,1.0,0,2,0,2,0,1,0,1,0,0,0,0,0,,,,,,,,,1354.781917989254,None,1354.781917989254,None,1354.781917989254,None,5s,1358.2561433073133,1359.2564338874072,1359.2475446788594,None,1360.2486907746643,1360.7310234894976,1360.2486907746643,1360.7310234894976,1360.7233071690425,None,1360.7233071690425,None,space,0.3023062776774168,1360.7233071690425,None,0.4793,1361.1565692983568,None,,,,,,,DEC015,001,2022_Oct_14_1520,2-25_cond_decay_EYE-try,2021.2.3,119.69974538067778,
left,0.75,1.0,0,2,0,2,0,1,0,1,0,0,1,1,7,,,,,,,,,,,,,,,5s,1362.206331658177,1363.2066183798015,1363.1984744314104,None,1364.1983850849792,1367.3981919456273,1364.1983850849792,1367.3981919456273,1367.3898068387061,None,1367.3898068387061,None,space,0.32531007565557957,1367.3898068387061,None,3.1938,1367.8402840606868,None,,,,,,,DEC015,001,2022_Oct_14_1520,2-25_cond_decay_EYE-try,2021.2.3,119.69974538067778,
right,1.0,0.75,0,2,0,2,0,1,0,1,0,0,2,2,9,,,,,,,,,,,,,,,5s,1368.8994475193322,1369.8985634902492,1369.8985634902492,None,1370.8982816701755,1371.2978816227987,1370.8982816701755,1371.2978816227987,1371.2905145557597,None,1371.2905145557597,None,space,0.3771372316405177,1371.2905145557597,None,0.3935,1371.7986361999065,None,,,,,,,DEC015,001,2022_Oct_14_1520,2-25_cond_decay_EYE-try,2021.2.3,119.69974538067778,
left,0.75,1.0,0,2,0,2,0,1,0,1,0,0,3,3,8,,,,,,,,,,,,,,,5s,1372.8566066455096,1373.856392543763,1373.8481316724792,None,1374.848254416138,1376.406635871157,1374.848254416138,1376.406635871157,1376.398250490427,None,1376.398250490427,None,space,0.34259310085326433,1376.398250490427,None,1.5528,1376.865167981945,None,,,,,,,DEC015,001,2022_Oct_14_1520,2-25_cond_decay_EYE-try,2021.2.3,119.69974538067778,
left,1.0,0.75,1,2,0,2,0,1,0,1,0,0,4,4,5,,,,,,,,,,,,,,,5s,1377.92283828184,1378.923064080067,1378.9148965431377,None,1379.9148594588041,1381.1479093367234,1379.9148594588041,1381.1479093367234,1381.1479093367234,None,1381.1479093367234,None,space,0.3928808644413948,1381.1479093367234,None,1.2282,1381.6651606559753,None,,,,,,,DEC015,001,2022_Oct_14_1520,2-25_cond_decay_EYE-try,2021.2.3,119.69974538067778,
right,1.0,0.75,0,2,0,2,0,1,0,1,0,0,5,5,1,,,,,,,,,,,,,,,5s,1382.7251521842554,1383.7313245134428,1383.7233233554289,None,1384.7231136308983,1387.4405164765194,1384.7231136308983,1387.4405164765194,1387.4312245585024,None,1387.4312245585024,None,space,0.32603783532977104,1387.4312245585024,None,2.7153,1387.88225676585,None,,,,,,,DEC015,001,2022_Oct_14_1520,2-25_cond_decay_EYE-try,2021.2.3,119.69974538067778,
right,1.0,0.75,0,2,0,2,0,1,0,1,0,0,6,6,4,,,,,,,,,,,,,,,5s,1388.9398378077894,1389.940135922283,1389.931769747287,None,1390.931251323782,1391.8903242601082,1390.931251323782,1391.8903242601082,1391.8817654373124,None,1391.8817654373124,None,space,0.31991057842969894,1391.8817654373124,None,0.955,1392.3320803418756,None,,,,,,,DEC015,001,2022_Oct_14_1520,2-25_cond_decay_EYE-try,2021.2.3,119.69974538067778,
left,0.75,1.0,0,2,0,2,0,1,0,1,0,0,7,7,6,,,,,,,,,,,,,,,5s,1393.3815105184913,1394.3825258687139,1394.3732414394617,None,1395.3737736502662,1396.5072172116488,1395.3737736502662,1396.5072172116488,1396.5072172116488,None,1396.5072172116488,None,space,0.2849151734262705,1396.5072172116488,None,1.1309,1396.9161839829758,None,,,,,,,DEC015,001,2022_Oct_14_1520,2-25_cond_decay_EYE-try,2021.2.3,119.69974538067778,
right,0.75,1.0,1,2,0,2,0,1,0,1,0,0,8,8,3,,,,,,,,,,,,,,,5s,1397.9821092868224,1398.9813900459558,1398.9731131261215,None,1399.973821831867,1404.3065587980673,1399.973821831867,1404.3065587980673,1404.2990274410695,None,1404.2990274410695,None,space,0.3355468828231096,1404.2990274410695,None,4.3278,1404.7656932519749,None,,,,,,,DEC015,001,2022_Oct_14_1520,2-25_cond_decay_EYE-try,2021.2.3,119.69974538067778,
right,1.0,0.75,0,2,0,2,0,1,0,1,0,0,9,9,2,,,,,,,,,,,,,,,5s,1405.8084072135389,1406.8150755129755,1406.8068874990568,None,1407.8068994041532,1411.1067154668272,1407.8068994041532,1411.1067154668272,1411.1067154668272,None,1411.1067154668272,None,space,0.29470750223845243,1411.1067154668272,None,3.2996,1411.5325825763866,None,,,,,,,DEC015,001,2022_Oct_14_1520,2-25_cond_decay_EYE-try,2021.2.3,119.69974538067778,
left,1.0,0.75,1,2,0,2,0,1,0,1,0,1,0,10,5,,,,,,,,,,,,,,,5s,1412.582332388498,1413.5820110850036,1413.574023583904,None,1414.5649597141892,1418.7655839286745,1414.5649597141892,1418.7655839286745,1418.7655839286745,None,1418.7655839286745,None,space,0.35859160125255585,1418.7655839286745,None,4.1978,1419.2503917198628,None,,,,,,,DEC015,001,2022_Oct_14_1520,2-25_cond_decay_EYE-try,2021.2.3,119.69974538067778,
left,0.75,1.0,0,2,0,2,0,1,0,1,0,1,1,11,8,,,,,,,,,,,,,,,5s,1420.3075536089018,1421.3070456078276,1421.2987147821113,None,1422.2987291058525,1425.5657214755192,1422.2987291058525,1425.5657214755192,1425.5570329353213,None,1425.5570329353213,None,space,0.33418896794319153,1425.5570329353213,None,3.2615,1426.0163877550513,None,,,,,,,DEC015,001,2022_Oct_14_1520,2-25_cond_decay_EYE-try,2021.2.3,119.69974538067778,
left,0.75,1.0,0,2,0,2,0,1,0,1,0,1,2,12,0,,,,,,,,,,,,,,,5s,1427.0743109807372,1428.0739008691162,1428.0658517070115,None,1429.0659262016416,1430.5069019747898,1429.0659262016416,1430.5069019747898,1430.5069019747898,None,1430.5069019747898,None,space,0.3673523413017392,1430.5069019747898,None,1.4414,1430.99881290365,None,,,,,,,DEC015,001,2022_Oct_14_1520,2-25_cond_decay_EYE-try,2021.2.3,119.69974538067778,
left,0.75,1.0,0,2,0,2,0,1,0,1,0,1,3,13,6,,,,,,,,,,,,,,,5s,1432.0571435233578,1433.0568395722657,1433.048783835955,None,1434.0484915962443,1438.4574951166287,1434.0484915962443,1438.4574951166287,1438.4574951166287,None,1438.4574951166287,None,space,0.2747518941760063,1438.4574951166287,None,4.4055,1438.8572654034942,None,,,,,,,DEC015,001,2022_Oct_14_1520,2-25_cond_decay_EYE-try,2021.2.3,119.69974538067778,
right,1.0,0.75,0,2,0,2,0,1,0,1,0,1,4,14,4,,,,,,,,,,,,,,,5s,1439.9242732627317,1440.9241612898186,1440.9153076503426,None,1441.915575212799,1443.0660778628662,1441.915575212799,1443.0660778628662,1443.056980613619,None,1443.056980613619,None,space,0.44208660908043385,1443.056980613619,None,1.1482,1443.623615280725,None,,,,,,,DEC015,001,2022_Oct_14_1520,2-25_cond_decay_EYE-try,2021.2.3,119.69974538067778,
right,1.0,0.75,0,2,0,2,0,1,0,1,0,1,5,15,2,,,,,,,,,,,,,,,5s,1444.6820487519726,1445.6823132932186,1445.6743962662295,None,1446.6745295599103,1447.20725378301,1446.6745295599103,1447.20725378301,1447.20725378301,None,1447.20725378301,None,space,0.3509860234335065,1447.20725378301,None,0.5311,1447.682727586478,None,,,,,,,DEC015,001,2022_Oct_14_1520,2-25_cond_decay_EYE-try,2021.2.3,119.69974538067778,
right,0.75,1.0,1,2,0,2,0,1,0,1,0,1,6,16,3,,,,,,,,,,,,,,,5s,1448.7327487030998,1449.7326406333596,1449.723671745509,None,1450.7235836135224,1451.5658049862832,1450.7235836135224,1451.5658049862832,1451.5658049862832,None,1451.5658049862832,None,space,0.30012813303619623,1451.5658049862832,None,0.8362,1451.991089454852,None,,,,,,,DEC015,001,2022_Oct_14_1520,2-25_cond_decay_EYE-try,2021.2.3,119.69974538067778,
left,0.75,1.0,0,2,0,2,0,1,0,1,0,1,7,17,7,,,,,,,,,,,,,,,5s,1453.057488151826,1454.0574320005253,1454.0493057491258,None,1455.0495506860316,1457.582995290868,1455.0495506860316,1457.582995290868,1457.5740749808028,None,1457.5740749808028,None,space,0.36170509085059166,1457.5740749808028,None,2.5275,1458.0654765628278,None,,,,,,,DEC015,001,2022_Oct_14_1520,2-25_cond_decay_EYE-try,2021.2.3,119.69974538067778,
right,1.0,0.75,0,2,0,2,0,1,0,1,0,1,8,18,1,,,,,,,,,,,,,,,5s,1459.1241361452267,1460.1245654411614,1460.107800470665,None,1461.10746002011,1464.1993838241324,1461.10746002011,1464.1993838241324,1464.1993838241324,None,1464.1993838241324,None,space,0.29148333612829447,1464.1993838241324,None,3.0867,1464.6175668705255,None,,,,,,,DEC015,001,2022_Oct_14_1520,2-25_cond_decay_EYE-try,2021.2.3,119.69974538067778,
right,1.0,0.75,0,2,0,2,0,1,0,1,0,1,9,19,9,,,,,,,,,,,,,,,5s,1465.6740827849135,1466.6743652699515,1466.6659721666947,None,1467.6662233090028,1472.2910098601133,1467.6662233090028,1472.2910098601133,1472.2910098601133,None,1472.2910098601133,None,space,0.3359679440036416,1472.2910098601133,None,4.6238,1472.7573567852378,None,,,,,,,DEC015,001,2022_Oct_14_1520,2-25_cond_decay_EYE-try,2021.2.3,119.69974538067778,
,,,,2,0,2,0,1,0,1,0,,,,,,,,,,,,,,,,,,,,,,,,,,,,,,,,,,,,,,,,,,,,,DEC015,001,2022_Oct_14_1520,2-25_cond_decay_EYE-try,2021.2.3,119.69974538067778,
left,0.75,1.0,0,2,0,2,0,2,0,2,0,0,0,0,1,,,,,,,,,1473.6495903618634,None,1473.6495903618634,None,1473.6495903618634,None,1s,1477.9917877297848,1478.9908825522289,1478.9739795988426,None,1479.9738941956311,1480.8162141609937,1479.9738941956311,1480.8162141609937,1480.8162141609937,None,1480.8162141609937,None,space,0.275902078486979,1480.8162141609937,None,0.8403,1481.2178442170843,None,,,,,,,DEC015,001,2022_Oct_14_1520,2-25_cond_decay_EYE-try,2021.2.3,119.69974538067778,
left,1.0,0.75,1,2,0,2,0,2,0,2,0,0,1,1,5,,,,,,,,,,,,,,,1s,1482.2746640304103,1483.2740823896602,1483.2658961880952,None,1484.266369977966,1484.466034377925,1484.266369977966,1484.466034377925,1484.4577204957604,None,1484.4577204957604,None,space,0.38601540867239237,1484.4577204957604,None,0.1958,1484.9749431135133,None,,,,,,,DEC015,001,2022_Oct_14_1520,2-25_cond_decay_EYE-try,2021.2.3,119.69974538067778,
left,0.75,1.0,0,2,0,2,0,2,0,2,0,0,2,2,4,,,,,,,,,,,,,,,1s,1486.016638235189,1487.0163338985294,1487.0081035457551,None,1488.0082804104313,1488.7740909215063,1488.0082804104313,1488.7740909215063,1488.7740909215063,None,1488.7740909215063,None,space,0.277543387375772,1488.7740909215063,None,0.7627,1489.1758622387424,None,,,,,,,DEC015,001,2022_Oct_14_1520,2-25_cond_decay_EYE-try,2021.2.3,119.69974538067778,
right,1.0,0.75,0,2,0,2,0,2,0,2,0,0,3,3,6,,,,,,,,,,,,,,,1s,1490.2411721767858,1491.2411217298359,1491.2328151408583,None,1492.2324746251106,1492.516275253147,1492.2324746251106,1492.516275253147,1492.5075716879219,None,1492.5075716879219,None,space,0.3190242424607277,1492.5075716879219,None,0.2804,1492.9580646101385,None,,,,,,,DEC015,001,2022_Oct_14_1520,2-25_cond_decay_EYE-try,2021.2.3,119.69974538067778,
right,1.0,0.75,0,2,0,2,0,2,0,2,0,0,4,4,9,,,,,,,,,,,,,,,1s,1494.008020115085,1495.0078424271196,1494.9992934726179,None,1495.9999984949827,1496.8248554235324,1495.9999984949827,1496.8248554235324,1496.8248554235324,None,1496.8248554235324,None,space,0.3090521218255162,1496.8248554235324,None,0.8204,1497.2587154824287,None,,,,,,,DEC015,001,2022_Oct_14_1520,2-25_cond_decay_EYE-try,2021.2.3,119.69974538067778,
left,0.75,1.0,0,2,0,2,0,2,0,2,0,0,5,5,0,,,,,,,,,,,,,,,1s,1498.3241067938507,1499.3251448702067,1499.3157468447462,None,1500.3158479733393,1500.8745730547234,1500.3158479733393,1500.8745730547234,1500.865899994038,None,1500.865899994038,None,space,0.27754145488142967,1500.865899994038,None,0.5536,1501.2676994465292,None,,,,,,,DEC015,001,2022_Oct_14_1520,2-25_cond_decay_EYE-try,2021.2.3,119.69974538067778,
left,0.75,1.0,0,2,0,2,0,2,0,2,0,0,6,6,2,,,,,,,,,,,,,,,1s,1502.3242736542597,1503.3248847303912,1503.3164855465293,None,1504.3167682392523,1505.1913390997797,1504.3167682392523,1505.1913390997797,1505.1827192846686,None,1505.1827192846686,None,space,0.2842293167486787,1505.1827192846686,None,0.8688,1505.5912149781361,None,,,,,,,DEC015,001,2022_Oct_14_1520,2-25_cond_decay_EYE-try,2021.2.3,119.69974538067778,
right,1.0,0.75,0,2,0,2,0,2,0,2,0,0,7,7,3,,,,,,,,,,,,,,,1s,1506.6492284322158,1507.6493624905124,1507.632723598741,1509.9080788316205,1508.6328846262768,1508.9080612864345,1508.6328846262768,1508.9080612864345,1508.9158887388185,None,1508.9158887388185,None,None,,1508.9158887388185,None,0.2754,1510.0410768548027,None,,,,,,,DEC015,001,2022_Oct_14_1520,2-25_cond_decay_EYE-try,2021.2.3,119.69974538067778,
left,0.75,1.0,0,2,0,2,0,2,0,2,0,0,8,8,8,,,,,,,,,,,,,,,1s,1511.0928649129346,1512.0997510384768,1512.091561649926,None,1513.091636115685,1513.9330777768046,1513.091636115685,1513.9330777768046,1513.924533138983,None,1513.924533138983,None,space,0.27803157083690166,1513.924533138983,None,0.8339,1514.3333334242925,None,,,,,,,DEC015,001,2022_Oct_14_1520,2-25_cond_decay_EYE-try,2021.2.3,119.69974538067778,
right,0.75,1.0,1,2,0,2,0,2,0,2,0,0,9,9,7,,,,,,,,,,,,,,,1s,1515.391663174145,1516.3917009308934,1516.3831918947399,None,1517.3834183812141,1517.6581534733996,1517.3834183812141,1517.6581534733996,1517.6494509642944,None,1517.6494509642944,None,space,0.3361468557268381,1517.6494509642944,None,0.2681,1518.1094732647762,None,,,,,,,DEC015,001,2022_Oct_14_1520,2-25_cond_decay_EYE-try,2021.2.3,119.69974538067778,
left,0.75,1.0,0,2,0,2,0,2,0,2,0,1,0,10,8,,,,,,,,,,,,,,,1s,1519.1677201418206,1520.175022480078,1520.158262426965,None,1521.157730367966,1521.3827127395198,1521.157730367966,1521.3827127395198,1521.3827127395198,None,1521.3827127395198,None,space,0.3505275594070554,1521.3827127395198,None,0.2225,1521.858480594121,None,,,,,,,DEC015,001,2022_Oct_14_1520,2-25_cond_decay_EYE-try,2021.2.3,119.69974538067778,
right,0.75,1.0,1,2,0,2,0,2,0,2,0,1,1,11,7,,,,,,,,,,,,,,,1s,1522.9173127720132,1523.9247949738055,1523.9079423444346,None,1524.908464527689,1525.7585552353412,1524.908464527689,1525.7585552353412,1525.7585552353412,None,1525.7585552353412,None,space,0.2850481476634741,1525.7585552353412,None,0.8476,1526.174419440329,None,,,,,,,DEC015,001,2022_Oct_14_1520,2-25_cond_decay_EYE-try,2021.2.3,119.69974538067778,
left,0.75,1.0,0,2,0,2,0,2,0,2,0,1,2,12,4,,,,,,,,,,,,,,,1s,1527.2247822079808,1528.2252220558003,1528.2086037574336,None,1529.2085134116933,1530.0500722639263,1529.2085134116933,1530.0500722639263,1530.0500722639263,None,1530.0500722639263,None,space,0.30220550671219826,1530.0500722639263,None,0.8405,1530.4829184357077,None,,,,,,,DEC015,001,2022_Oct_14_1520,2-25_cond_decay_EYE-try,2021.2.3,119.69974538067778,
left,0.75,1.0,0,2,0,2,0,2,0,2,0,1,3,13,2,,,,,,,,,,,,,,,1s,1531.5332612674683,1532.5335659524426,1532.5244751852006,None,1533.5254457099363,1533.6912597343326,1533.5254457099363,1533.6912597343326,1533.6835323870182,None,1533.6835323870182,None,space,0.37542618717998266,1533.6835323870182,None,0.1633,1534.182944838889,None,,,,,,,DEC015,001,2022_Oct_14_1520,2-25_cond_decay_EYE-try,2021.2.3,119.69974538067778,
right,1.0,0.75,0,2,0,2,0,2,0,2,0,1,4,14,9,,,,,,,,,,,,,,,1s,1535.2413025246933,1536.2415705230087,1536.2334825424477,None,1537.2336173495278,1537.741189436987,1537.2336173495278,1537.741189436987,1537.741189436987,None,1537.741189436987,None,space,0.30096939764916897,1537.741189436987,None,0.5053,1538.1664705388248,None,,,,,,,DEC015,001,2022_Oct_14_1520,2-25_cond_decay_EYE-try,2021.2.3,119.69974538067778,
left,0.75,1.0,0,2,0,2,0,2,0,2,0,1,5,15,0,,,,,,,,,,,,,,,1s,1539.2332146074623,1540.233462153934,1540.2254390353337,None,1541.224526542239,1542.191366493702,1541.224526542239,1542.191366493702,1542.191366493702,None,1542.191366493702,None,space,0.2671756697818637,1542.191366493702,None,0.9649,1542.584144874476,None,,,,,,,DEC015,001,2022_Oct_14_1520,2-25_cond_decay_EYE-try,2021.2.3,119.69974538067778,
right,1.0,0.75,0,2,0,2,0,2,0,2,0,1,6,16,6,,,,,,,,,,,,,,,1s,1543.6429806351662,1544.6502594323829,1544.6419885521755,None,1545.6420995192602,1546.0918540740386,1545.6420995192602,1546.0918540740386,1546.0833696033806,None,1546.0833696033806,None,space,0.27700412832200527,1546.0833696033806,None,0.4461,1546.4851304600015,None,,,,,,,DEC015,001,2022_Oct_14_1520,2-25_cond_decay_EYE-try,2021.2.3,119.69974538067778,
right,1.0,0.75,0,2,0,2,0,2,0,2,0,1,7,17,3,,,,,,,,,,,,,,,1s,1547.5415785573423,1548.5414339574054,1548.5335760302842,None,1549.5330885387957,1549.8088387101889,1549.5330885387957,1549.8088387101889,1549.8002367420122,None,1549.8002367420122,None,space,0.2925321012735367,1549.8002367420122,None,0.2687,1550.217902556993,None,,,,,,,DEC015,001,2022_Oct_14_1520,2-25_cond_decay_EYE-try,2021.2.3,119.69974538067778,
left,1.0,0.75,1,2,0,2,0,2,0,2,0,1,8,18,5,,,,,,,,,,,,,,,1s,1551.283314035274,1552.2833930933848,1552.2750746356323,None,1553.2751295268536,1553.8498981092125,1553.2751295268536,1553.8498981092125,1553.841331537813,None,1553.841331537813,None,space,0.2865091161802411,1553.841331537813,None,0.5694,1554.2583534559235,None,,,,,,,DEC015,001,2022_Oct_14_1520,2-25_cond_decay_EYE-try,2021.2.3,119.69974538067778,
right,1.0,0.75,0,2,0,2,0,2,0,2,0,1,9,19,1,,,,,,,,,,,,,,,1s,1555.3163473904133,1556.3171659857035,1556.308128444478,None,1557.3080138992518,1557.8670027088374,1557.3080138992518,1557.8670027088374,1557.8670027088374,None,1557.8670027088374,None,space,0.2943907417356968,1557.8670027088374,None,0.5556,1558.2913536410779,None,,,,,,,DEC015,001,2022_Oct_14_1520,2-25_cond_decay_EYE-try,2021.2.3,119.69974538067778,
,,,,2,0,2,0,2,0,2,0,,,,,,,,,,,,,,,,,,,,,,,,,,,,,,,,,,,,,,,,,,,,,DEC015,001,2022_Oct_14_1520,2-25_cond_decay_EYE-try,2021.2.3,119.69974538067778,
right,1.0,0.75,0,2,0,2,0,3,0,3,0,0,0,0,4,,,,,,,,,1559.183742039837,None,1559.183742039837,None,1559.183742039837,None,3s,1563.9663892025128,1564.9669584203511,1564.9497393034399,None,1565.950702975504,1567.199942088686,1565.950702975504,1567.199942088686,1567.191904318519,None,1567.191904318519,None,space,0.3602518569678068,1567.191904318519,None,1.2423,1567.6832102313638,None,,,,,,,DEC015,001,2022_Oct_14_1520,2-25_cond_decay_EYE-try,2021.2.3,119.69974538067778,
right,1.0,0.75,0,2,0,2,0,3,0,3,0,0,1,1,3,,,,,,,,,,,,,,,3s,1568.7261900883168,1569.725050165318,1569.725050165318,None,1570.725913262926,1572.8421763759106,1570.725913262926,1572.8421763759106,1572.833685779944,None,1572.833685779944,None,space,0.37807934265583754,1572.833685779944,None,2.1121,1573.3421805910766,None,,,,,,,DEC015,001,2022_Oct_14_1520,2-25_cond_decay_EYE-try,2021.2.3,119.69974538067778,
left,0.75,1.0,0,2,0,2,0,3,0,3,0,0,2,2,5,,,,,,,,,,,,,,,3s,1574.400619016029,1575.4000528808683,1575.3916777931154,None,1576.392476690933,1579.1841827174649,1576.392476690933,1579.1841827174649,1579.1749522658065,None,1579.1749522658065,None,space,0.2929325131699443,1579.1749522658065,None,2.7897,1579.592218497768,None,,,,,,,DEC015,001,2022_Oct_14_1520,2-25_cond_decay_EYE-try,2021.2.3,119.69974538067778,
left,1.0,0.75,1,2,0,2,0,3,0,3,0,0,3,3,9,,,,,,,,,,,,,,,3s,1580.6423683725297,1581.6421364406124,1581.633678383194,None,1582.6340119484812,1584.858347077854,1582.6340119484812,1584.858347077854,1584.858347077854,None,1584.858347077854,None,space,0.3282276373356581,1584.858347077854,None,2.2246,1585.3171493848786,None,,,,,,,DEC015,001,2022_Oct_14_1520,2-25_cond_decay_EYE-try,2021.2.3,119.69974538067778,
left,0.75,1.0,0,2,0,2,0,3,0,3,0,0,4,4,1,,,,,,,,,,,,,,,3s,1586.3603199208155,1587.367591242306,1587.359281086363,None,1588.3585557667539,1588.8840759200975,1588.3585557667539,1588.8840759200975,1588.8753113569692,None,1588.8753113569692,None,space,0.3762835478410125,1588.8753113569692,None,0.518,1589.3756018104032,None,,,,,,,DEC015,001,2022_Oct_14_1520,2-25_cond_decay_EYE-try,2021.2.3,119.69974538067778,
right,1.0,0.75,0,2,0,2,0,3,0,3,0,0,5,5,6,,,,,,,,,,,,,,,3s,1590.433968254365,1591.433732079342,1591.4173216167837,None,1592.4168710755184,1595.3335905661806,1592.4168710755184,1595.3335905661806,1595.3335905661806,None,1595.3335905661806,None,space,0.2780255666002631,1595.3335905661806,None,2.9134,1595.7354485783726,None,,,,,,,DEC015,001,2022_Oct_14_1520,2-25_cond_decay_EYE-try,2021.2.3,119.69974538067778,
left,0.75,1.0,0,2,0,2,0,3,0,3,0,0,6,6,2,,,,,,,,,,,,,,,3s,1596.7920819930732,1597.7923452295363,1597.7840877408162,None,1598.7835404807702,1600.9257871806622,1598.7835404807702,1600.9257871806622,1600.9171580243856,None,1600.9171580243856,None,space,0.3028484610840678,1600.9171580243856,None,2.1385,1601.350882976316,None,,,,,,,DEC015,001,2022_Oct_14_1520,2-25_cond_decay_EYE-try,2021.2.3,119.69974538067778,
left,0.75,1.0,0,2,0,2,0,3,0,3,0,0,7,7,0,,,,,,,,,,,,,,,3s,1602.4004447180778,1603.400758919306,1603.392665926367,None,1604.3927008444443,1606.1424165116623,1604.3927008444443,1606.1424165116623,1606.1336118411273,None,1606.1336118411273,None,None,,1606.1336118411273,None,1.7419,1607.2595390863717,None,,,,,,,DEC015,001,2022_Oct_14_1520,2-25_cond_decay_EYE-try,2021.2.3,119.69974538067778,
right,0.75,1.0,1,2,0,2,0,3,0,3,0,0,8,8,8,,,,,,,,,,,,,,,3s,1608.3096147105098,1609.308762296103,1609.30074471049,None,1610.3005389207974,1611.3006859011948,1610.3005389207974,1611.3006859011948,1611.3006859011948,None,1611.3006859011948,None,space,0.2858772212639451,1611.3006859011948,None,1.0006,1611.7176346564665,None,,,,,,,DEC015,001,2022_Oct_14_1520,2-25_cond_decay_EYE-try,2021.2.3,119.69974538067778,
right,1.0,0.75,0,2,0,2,0,3,0,3,0,0,9,9,7,,,,,,,,,,,,,,,3s,1612.7676961962134,1613.7674738597125,1613.7592961695045,None,1614.7586773158982,1615.4675117312,1614.7586773158982,1615.4675117312,1615.4675117312,None,1615.4675117312,None,space,0.3586203334853053,1615.4675117312,None,0.7049,1615.951076962985,None,,,,,,,DEC015,001,2022_Oct_14_1520,2-25_cond_decay_EYE-try,2021.2.3,119.69974538067778,
right,0.75,1.0,1,2,0,2,0,3,0,3,0,1,0,10,8,,,,,,,,,,,,,,,3s,1617.009136932902,1618.0094155762345,1617.9923207089305,None,1619.0006304606795,1621.9756334032863,1619.0006304606795,1621.9756334032863,1621.9671378899366,None,1621.9671378899366,None,space,0.34301568008959293,1621.9671378899366,None,2.9746,1622.4358644606546,None,,,,,,,DEC015,001,2022_Oct_14_1520,2-25_cond_decay_EYE-try,2021.2.3,119.69974538067778,
right,1.0,0.75,0,2,0,2,0,3,0,3,0,1,1,11,3,,,,,,,,,,,,,,,3s,1623.4847757155076,1624.483732781373,1624.483732781373,None,1625.4843591339886,1625.9093167763203,1625.4843591339886,1625.9093167763203,1625.9009460462257,None,1625.9009460462257,None,space,0.3340412462130189,1625.9009460462257,None,0.4181,1626.3592290012166,None,,,,,,,DEC015,001,2022_Oct_14_1520,2-25_cond_decay_EYE-try,2021.2.3,119.69974538067778,
left,0.75,1.0,0,2,0,2,0,3,0,3,0,1,2,12,0,,,,,,,,,,,,,,,3s,1627.4255928331986,1628.425961122848,1628.4181133825332,None,1629.4174498962238,1630.1921950243413,1629.4174498962238,1630.1921950243413,1630.1921950243413,None,1630.1921950243413,None,space,0.27613908145576715,1630.1921950243413,None,0.776,1630.592194548808,None,,,,,,,DEC015,001,2022_Oct_14_1520,2-25_cond_decay_EYE-try,2021.2.3,119.69974538067778,
left,0.75,1.0,0,2,0,2,0,3,0,3,0,1,3,13,2,,,,,,,,,,,,,,,3s,1631.6507655298337,1632.6505126431584,1632.6421711789444,None,1633.6422312166542,1636.1673016780987,1633.6422312166542,1636.1673016780987,1636.1673016780987,None,1636.1673016780987,None,space,0.2844682391732931,1636.1673016780987,None,2.5258,1636.5764042343944,None,,,,,,,DEC015,001,2022_Oct_14_1520,2-25_cond_decay_EYE-try,2021.2.3,119.69974538067778,
right,1.0,0.75,0,2,0,2,0,3,0,3,0,1,4,14,7,,,,,,,,,,,,,,,3s,1637.634655047208,1638.634382349439,1638.6262986166403,None,1639.626087795943,1640.7255902243778,1639.626087795943,1640.7255902243778,1640.7255902243778,None,1640.7255902243778,None,space,0.33392271026968956,1640.7255902243778,None,1.0964,1641.1845559617504,None,,,,,,,DEC015,001,2022_Oct_14_1520,2-25_cond_decay_EYE-try,2021.2.3,119.69974538067778,
left,0.75,1.0,0,2,0,2,0,3,0,3,0,1,5,15,5,,,,,,,,,,,,,,,3s,1642.2432518592104,1643.242345482111,1643.2264563152567,None,1644.234052626416,1646.3933243509382,1644.234052626416,1646.3933243509382,1646.3844891758636,None,1646.3844891758636,None,space,0.32769686356186867,1646.3844891758636,None,2.1581,1646.8432416552678,None,,,,,,,DEC015,001,2022_Oct_14_1520,2-25_cond_decay_EYE-try,2021.2.3,119.69974538067778,
left,0.75,1.0,0,2,0,2,0,3,0,3,0,1,6,16,1,,,,,,,,,,,,,,,3s,1647.893297159113,1648.8929446367547,1648.8846216527745,None,1649.8842080282047,1652.6680080564693,1649.8842080282047,1652.6680080564693,1652.6680080564693,None,1652.6680080564693,None,space,0.2694273190572858,1652.6680080564693,None,2.7802,1653.060834178701,None,,,,,,,DEC015,001,2022_Oct_14_1520,2-25_cond_decay_EYE-try,2021.2.3,119.69974538067778,
