attn_cue,left_ob,right_ob,congruent,runs.thisRepN,runs.thisTrialN,runs.thisN,runs.thisIndex,blocks.thisRepN,blocks.thisTrialN,blocks.thisN,blocks.thisIndex,trials.thisRepN,trials.thisTrialN,trials.thisN,trials.thisIndex,welcome.started,welcome.stopped,text_2.started,text_2.stopped,init_key_resp.keys,init_key_resp.rt,init_key_resp.started,init_key_resp.stopped,text_3.started,text_3.stopped,text_4.started,text_4.stopped,text_5.started,text_5.stopped,block_num,texter.started,texter.stopped,cross.started,cross.stopped,left_star.started,left_star.stopped,right_star.started,right_star.stopped,left_2.started,left_2.stopped,right_2.started,right_2.stopped,key_resp.keys,key_resp.rt,key_resp.started,key_resp.stopped,Rand Tim,text.started,text.stopped,end.started,end.stopped,text_6.started,text_6.stopped,text_7.started,text_7.stopped,participant,session,date,expName,psychopyVersion,frameRate,
,,,,,,,,,,,,,,,,155.83167377702193,None,155.83167377702193,None,space,1.481699424010003,155.83167377702193,None,,,,,,,,,,,,,,,,,,,,,,,,,,,,,,,,,DEC010,001,2022_Jul_07_1710,2-25_cond_decay_EYE-try,2021.2.3,164.9975568938814,
right,1.0,0.75,0,0,0,0,0,0,0,0,0,0,0,0,7,,,,,,,,,157.3407436569978,None,157.3407436569978,None,157.3407436569978,None,5s,159.12247076400672,160.1225286310073,160.1163789840066,None,161.1164573650167,165.85573759800172,161.1164573650167,165.85573759800172,165.85573759800172,None,165.85573759800172,None,space,0.4096238039783202,165.85573759800172,None,4.7386,166.40728083101567,None,,,,,,,DEC010,001,2022_Jul_07_1710,2-25_cond_decay_EYE-try,2021.2.3,164.9975568938814,
right,1.0,0.75,0,0,0,0,0,0,0,0,0,0,1,1,8,,,,,,,,,,,,,,,5s,167.44970783600002,168.44961403901107,168.44363331701607,None,169.44361677300185,170.87988837700686,169.44361677300185,170.87988837700686,170.8725215360173,None,170.8725215360173,None,space,0.5288687909778673,170.8725215360173,None,1.4284,171.54055135601084,None,,,,,,,DEC010,001,2022_Jul_07_1710,2-25_cond_decay_EYE-try,2021.2.3,164.9975568938814,
left,0.75,1.0,0,0,0,0,0,0,0,0,0,0,2,2,9,,,,,,,,,,,,,,,5s,172.6010902810085,173.6011368840118,173.59508193901274,None,174.59507758301334,176.3648236200097,174.59507758301334,176.3648236200097,176.35733865201473,None,176.35733865201473,None,space,0.31596037399140187,176.35733865201473,None,1.759,176.80109620501753,None,,,,,,,DEC010,001,2022_Jul_07_1710,2-25_cond_decay_EYE-try,2021.2.3,164.9975568938814,
left,0.75,1.0,0,0,0,0,0,0,0,0,0,0,3,3,5,,,,,,,,,,,,,,,5s,177.84958554501645,178.8494922380196,178.84349624702008,None,179.84348785399925,181.87375216800137,179.84348785399925,181.87375216800137,181.87375216800137,None,181.87375216800137,None,space,0.3596127490163781,181.87375216800137,None,2.0293,182.37073356701876,None,,,,,,,DEC010,001,2022_Jul_07_1710,2-25_cond_decay_EYE-try,2021.2.3,164.9975568938814,
right,1.0,0.75,0,0,0,0,0,0,0,0,0,0,4,4,6,,,,,,,,,,,,,,,5s,183.43131923102192,184.43130560201826,184.42526181400171,None,185.4251740979962,185.8919076330203,185.4251740979962,185.8919076330203,185.88460422400385,None,185.88460422400385,None,space,0.4367877500189934,185.88460422400385,None,0.4574,186.4494683490193,None,,,,,,,DEC010,001,2022_Jul_07_1710,2-25_cond_decay_EYE-try,2021.2.3,164.9975568938814,
right,0.75,1.0,1,0,0,0,0,0,0,0,0,0,5,5,3,,,,,,,,,,,,,,,5s,187.5039600940072,188.5039297080075,188.4979209600133,None,189.49791982999886,192.67360750000807,189.49791982999886,192.67360750000807,192.66628972502076,None,192.66628972502076,None,space,0.535088981006993,192.66628972502076,None,3.1654,193.34029090902186,None,,,,,,,DEC010,001,2022_Jul_07_1710,2-25_cond_decay_EYE-try,2021.2.3,164.9975568938814,
left,0.75,1.0,0,0,0,0,0,0,0,0,0,0,6,6,2,,,,,,,,,,,,,,,5s,194.40084366101655,195.4008833669941,195.38869387999875,None,196.38870335600222,198.94631498501985,196.38870335600222,198.94631498501985,198.94631498501985,None,198.94631498501985,None,space,0.3831033299793489,198.94631498501985,None,2.5531,199.4674876880017,None,,,,,,,DEC010,001,2022_Jul_07_1710,2-25_cond_decay_EYE-try,2021.2.3,164.9975568938814,
right,1.0,0.75,0,0,0,0,0,0,0,0,0,0,7,7,1,,,,,,,,,,,,,,,5s,200.52802651000093,201.52808378799818,201.51588215801166,None,202.51594241600833,207.15224370901706,202.51594241600833,207.15224370901706,207.15224370901706,None,207.15224370901706,None,space,0.2890704610035755,207.15224370901706,None,4.6343,207.57042818600894,None,,,,,,,DEC010,001,2022_Jul_07_1710,2-25_cond_decay_EYE-try,2021.2.3,164.9975568938814,
left,0.75,1.0,0,0,0,0,0,0,0,0,0,0,8,8,4,,,,,,,,,,,,,,,5s,208.6310038100055,209.63100958400173,209.62489401199855,None,210.62494639999932,211.0249369550147,210.62494639999932,211.0249369550147,211.01754999600234,None,211.01754999600234,None,space,0.9757734150043689,211.01754999600234,None,0.3911,212.12664223602042,None,,,,,,,DEC010,001,2022_Jul_07_1710,2-25_cond_decay_EYE-try,2021.2.3,164.9975568938814,
right,1.0,0.75,0,0,0,0,0,0,0,0,0,0,9,9,0,,,,,,,,,,,,,,,5s,213.1824354980199,214.1824201749987,214.1763800990011,None,215.17632321300334,215.51578068101662,215.17632321300334,215.51578068101662,215.50841535101063,None,215.50841535101063,None,space,0.436970371985808,215.50841535101063,None,0.3283,216.07335100800265,None,,,,,,,DEC010,001,2022_Jul_07_1710,2-25_cond_decay_EYE-try,2021.2.3,164.9975568938814,
left,0.75,1.0,0,0,0,0,0,0,0,0,0,1,0,10,9,,,,,,,,,,,,,,,5s,217.1278297380195,218.12780710100196,218.12181512301322,None,219.12180930600152,221.84902952701668,219.12180930600152,221.84902952701668,221.84169974800898,None,221.84169974800898,None,space,0.31166001097881235,221.84169974800898,None,2.7182,222.29145649500424,None,,,,,,,DEC010,001,2022_Jul_07_1710,2-25_cond_decay_EYE-try,2021.2.3,164.9975568938814,
left,0.75,1.0,0,0,0,0,0,0,0,0,0,1,1,11,2,,,,,,,,,,,,,,,5s,223.34599088001414,224.34599681501277,224.33992433501408,None,225.33983335201629,229.5216763369972,225.33983335201629,229.5216763369972,229.51427041599527,None,229.51427041599527,None,space,0.3031202940037474,229.51427041599527,None,4.173,229.95197187102167,None,,,,,,,DEC010,001,2022_Jul_07_1710,2-25_cond_decay_EYE-try,2021.2.3,164.9975568938814,
right,1.0,0.75,0,0,0,0,0,0,0,0,0,1,2,12,6,,,,,,,,,,,,,,,5s,231.0065153420146,232.0064923010068,231.99438888099394,None,232.9943547080038,234.59430765299476,232.9943547080038,234.59430765299476,234.59430765299476,None,234.59430765299476,None,space,0.2789962049864698,234.59430765299476,None,1.5953,235.012447977002,None,,,,,,,DEC010,001,2022_Jul_07_1710,2-25_cond_decay_EYE-try,2021.2.3,164.9975568938814,
left,0.75,1.0,0,0,0,0,0,0,0,0,0,1,3,13,5,,,,,,,,,,,,,,,5s,236.07305074800388,237.0730307890044,237.06706980301533,None,238.06701574800536,239.0488361820171,238.06701574800536,239.0488361820171,239.04140699800337,None,239.04140699800337,None,space,0.4479120369942393,239.04140699800337,None,0.9736,239.62328133999836,None,,,,,,,DEC010,001,2022_Jul_07_1710,2-25_cond_decay_EYE-try,2021.2.3,164.9975568938814,
right,1.0,0.75,0,0,0,0,0,0,0,0,0,1,4,14,1,,,,,,,,,,,,,,,5s,240.67908837701543,241.67903491601464,241.6729781049944,None,242.67297586001223,243.11545523701352,242.67297586001223,243.11545523701352,243.11545523701352,None,243.11545523701352,None,space,0.301926491985796,243.11545523701352,None,0.4432,243.54577907701605,None,,,,,,,DEC010,001,2022_Jul_07_1710,2-25_cond_decay_EYE-try,2021.2.3,164.9975568938814,
left,0.75,1.0,0,0,0,0,0,0,0,0,0,1,5,15,4,,,,,,,,,,,,,,,5s,244.60021977202268,245.600307634013,245.5941584810207,None,246.59420428200974,251.03050311101833,246.59420428200974,251.03050311101833,251.02314390300307,None,251.02314390300307,None,space,0.3222384399850853,251.02314390300307,None,4.4269,251.47288626502268,None,,,,,,,DEC010,001,2022_Jul_07_1710,2-25_cond_decay_EYE-try,2021.2.3,164.9975568938814,
left,1.0,0.75,1,0,0,0,0,0,0,0,0,1,6,16,7,,,,,,,,,,,,,,,5s,252.52746539999498,253.52746176801156,253.5213845090184,None,254.52137765000225,258.3577635700058,254.52137765000225,258.3577635700058,258.3502439559961,None,258.3502439559961,None,None,,258.3502439559961,None,3.8287,259.4849489220069,None,,,,,,,DEC010,001,2022_Jul_07_1710,2-25_cond_decay_EYE-try,2021.2.3,164.9975568938814,
right,1.0,0.75,0,0,0,0,0,0,0,0,0,1,7,17,8,,,,,,,,,,,,,,,5s,260.5334052889957,261.5333588650101,261.5212926560198,None,262.52130889100954,263.61823997300235,262.52130889100954,263.61823997300235,263.61823997300235,None,263.61823997300235,None,space,0.7190737809869461,263.61823997300235,None,1.0941,264.47276746301213,None,,,,,,,DEC010,001,2022_Jul_07_1710,2-25_cond_decay_EYE-try,2021.2.3,164.9975568938814,
right,1.0,0.75,0,0,0,0,0,0,0,0,0,1,8,18,0,,,,,,,,,,,,,,,5s,265.5152170850197,266.51518197901896,266.50905536700157,None,267.50904048400116,271.58785834300215,267.50904048400116,271.58785834300215,271.58785834300215,None,271.58785834300215,None,space,0.30146268499083817,271.58785834300215,None,4.0777,272.0228991160111,None,,,,,,,DEC010,001,2022_Jul_07_1710,2-25_cond_decay_EYE-try,2021.2.3,164.9975568938814,
right,0.75,1.0,1,0,0,0,0,0,0,0,0,1,9,19,3,,,,,,,,,,,,,,,5s,273.072594510013,274.0725811739976,274.06059461901896,None,275.0604664100101,276.6059021190158,275.0604664100101,276.6059021190158,276.6059021190158,None,276.6059021190158,None,space,0.42749842698685825,276.6059021190158,None,1.5406,277.16352567099966,None,,,,,,,DEC010,001,2022_Jul_07_1710,2-25_cond_decay_EYE-try,2021.2.3,164.9975568938814,
,,,,0,0,0,0,0,0,0,0,,,,,,,,,,,,,,,,,,,,,,,,,,,,,,,,,,,,,,,,,,,,,DEC010,001,2022_Jul_07_1710,2-25_cond_decay_EYE-try,2021.2.3,164.9975568938814,
left,0.75,1.0,0,0,0,0,0,1,0,1,0,0,0,0,2,,,,,,,,,278.06048913899576,None,278.06048913899576,None,278.06048913899576,None,1s,279.751319692994,280.7513661440171,280.73924108501524,None,281.73925771101494,282.03619172101025,281.73925771101494,282.03619172101025,282.03619172101025,None,282.03619172101025,None,space,0.2851216869894415,282.03619172101025,None,0.2934,282.46044129901566,None,,,,,,,DEC010,001,2022_Jul_07_1710,2-25_cond_decay_EYE-try,2021.2.3,164.9975568938814,
right,1.0,0.75,0,0,0,0,0,1,0,1,0,0,1,1,8,,,,,,,,,,,,,,,1s,283.5210267860093,284.52102270702017,284.514890905004,None,285.5148973680043,286.1270486570138,285.5148973680043,286.1270486570138,286.1196344560012,None,286.1196344560012,None,space,0.21774360400740989,286.1196344560012,None,0.6023,286.4664450440032,None,,,,,,,DEC010,001,2022_Jul_07_1710,2-25_cond_decay_EYE-try,2021.2.3,164.9975568938814,
right,1.0,0.75,0,0,0,0,0,1,0,1,0,0,2,2,9,,,,,,,,,,,,,,,1s,287.5257653059962,288.5270318380208,288.514838987001,None,289.51482090802165,289.8967195690202,289.51482090802165,289.8967195690202,289.8967195690202,None,289.8967195690202,None,space,0.27261596400057897,289.8967195690202,None,0.3792,290.2966953389987,None,,,,,,,DEC010,001,2022_Jul_07_1710,2-25_cond_decay_EYE-try,2021.2.3,164.9975568938814,
left,0.75,1.0,0,0,0,0,0,1,0,1,0,0,3,3,5,,,,,,,,,,,,,,,1s,291.35117613500915,292.35115634300746,292.3391064919997,None,293.33901609500754,293.8299255570164,293.33901609500754,293.8299255570164,293.8299255570164,None,293.8299255570164,None,space,0.2674925889878068,293.8299255570164,None,0.4908,294.2360591250181,None,,,,,,,DEC010,001,2022_Jul_07_1710,2-25_cond_decay_EYE-try,2021.2.3,164.9975568938814,
right,1.0,0.75,0,0,0,0,0,1,0,1,0,0,4,4,6,,,,,,,,,,,,,,,1s,295.2905146779958,296.2905000059982,296.2844401480106,None,297.284499218018,297.7390373290109,297.284499218018,297.7390373290109,297.7390373290109,None,297.7390373290109,None,space,0.23835192900151014,297.7390373290109,None,0.4531,298.1147833940049,None,,,,,,,DEC010,001,2022_Jul_07_1710,2-25_cond_decay_EYE-try,2021.2.3,164.9975568938814,
right,1.0,0.75,0,0,0,0,0,1,0,1,0,0,5,5,3,,,,,,,,,,,,,,,1s,299.1692537670024,300.1692348619981,300.1631917479972,None,301.163170061016,301.59346609801287,301.163170061016,301.59346609801287,301.5861276120122,None,301.5861276120122,None,space,0.2631869030010421,301.5861276120122,None,0.42,301.98747570000705,None,,,,,,,DEC010,001,2022_Jul_07_1710,2-25_cond_decay_EYE-try,2021.2.3,164.9975568938814,
left,0.75,1.0,0,0,0,0,0,1,0,1,0,0,6,6,0,,,,,,,,,,,,,,,1s,303.04799368800013,304.04808516902267,304.04200388200115,None,305.04199520501425,305.5328091130068,305.04199520501425,305.5328091130068,305.525531583,None,305.525531583,None,space,0.28378823699313216,305.525531583,None,0.4809,305.9436979019956,None,,,,,,,DEC010,001,2022_Jul_07_1710,2-25_cond_decay_EYE-try,2021.2.3,164.9975568938814,
left,0.75,1.0,0,0,0,0,0,1,0,1,0,0,7,7,1,,,,,,,,,,,,,,,1s,306.9934083260014,307.99953624399495,307.9813207340194,None,308.9812992020161,309.93283678000444,308.9812992020161,309.93283678000444,309.93283678000444,None,309.93283678000444,None,space,0.34049330902053043,309.93283678000444,None,0.9465,310.41160674300045,None,,,,,,,DEC010,001,2022_Jul_07_1710,2-25_cond_decay_EYE-try,2021.2.3,164.9975568938814,
left,1.0,0.75,1,0,0,0,0,1,0,1,0,0,8,8,7,,,,,,,,,,,,,,,1s,311.4661603910208,312.4660703310219,312.4600895100157,None,313.46000101201935,313.71454457502114,313.46000101201935,313.71454457502114,313.7071882500022,None,313.7071882500022,None,space,0.41419816500274464,313.7071882500022,None,0.2445,314.2600450080063,None,,,,,,,DEC010,001,2022_Jul_07_1710,2-25_cond_decay_EYE-try,2021.2.3,164.9975568938814,
right,0.75,1.0,1,0,0,0,0,1,0,1,0,0,9,9,4,,,,,,,,,,,,,,,1s,315.3145214030228,316.3145084910211,316.3085061490128,None,317.30850299602025,317.84183213399956,317.30850299602025,317.84183213399956,317.83440515599796,None,317.83440515599796,None,space,0.31892068701563403,317.83440515599796,None,0.5241,318.29030095101916,None,,,,,,,DEC010,001,2022_Jul_07_1710,2-25_cond_decay_EYE-try,2021.2.3,164.9975568938814,
right,1.0,0.75,0,0,0,0,0,1,0,1,0,1,0,10,8,,,,,,,,,,,,,,,1s,319.3448483130196,320.34476074701524,320.3387541620177,None,321.33876120700734,322.0901965210214,321.33876120700734,322.0901965210214,322.0901965210214,None,322.0901965210214,None,space,0.2951228150050156,322.0901965210214,None,0.7495,322.5144937779987,None,,,,,,,DEC010,001,2022_Jul_07_1710,2-25_cond_decay_EYE-try,2021.2.3,164.9975568938814,
right,0.75,1.0,1,0,0,0,0,1,0,1,0,1,1,11,4,,,,,,,,,,,,,,,1s,323.5677443059976,324.56892772900756,324.556835409021,None,325.55681564001134,325.9205164129962,325.55681564001134,325.9205164129962,325.9205164129962,None,325.9205164129962,None,space,0.32088547898456454,325.9205164129962,None,0.3613,326.3689945200167,None,,,,,,,DEC010,001,2022_Jul_07_1710,2-25_cond_decay_EYE-try,2021.2.3,164.9975568938814,
right,1.0,0.75,0,0,0,0,0,1,0,1,0,1,2,12,6,,,,,,,,,,,,,,,1s,327.42352338699857,328.42352183000185,328.4174618690158,None,329.4174626530148,329.7325904229947,329.4174626530148,329.7325904229947,329.7325904229947,None,329.7325904229947,None,space,0.2528009879752062,329.7325904229947,None,0.3159,330.11440716299694,None,,,,,,,DEC010,001,2022_Jul_07_1710,2-25_cond_decay_EYE-try,2021.2.3,164.9975568938814,
right,1.0,0.75,0,0,0,0,0,1,0,1,0,1,3,13,9,,,,,,,,,,,,,,,1s,331.1688706690038,332.1689671470085,332.1568153820117,None,333.15682803999516,333.62346875699586,333.15682803999516,333.62346875699586,333.62346875699586,None,333.62346875699586,None,space,0.2418347269995138,333.62346875699586,None,0.4667,333.99314006700297,None,,,,,,,DEC010,001,2022_Jul_07_1710,2-25_cond_decay_EYE-try,2021.2.3,164.9975568938814,
left,0.75,1.0,0,0,0,0,0,1,0,1,0,1,4,14,2,,,,,,,,,,,,,,,1s,335.05244444301934,336.0537302470184,336.04162799500045,None,337.04161252401536,337.69007122001494,337.04161252401536,337.69007122001494,337.6826569940022,None,337.6826569940022,None,space,0.2387288530007936,337.6826569940022,None,0.6385,338.05968237802153,None,,,,,,,DEC010,001,2022_Jul_07_1710,2-25_cond_decay_EYE-try,2021.2.3,164.9975568938814,
left,0.75,1.0,0,0,0,0,0,1,0,1,0,1,5,15,0,,,,,,,,,,,,,,,1s,339.1142985850165,340.1142244420189,340.1082331180223,None,341.1081448190089,341.54463630600367,341.1081448190089,341.54463630600367,341.54463630600367,None,341.54463630600367,None,space,0.36869937300798483,341.54463630600367,None,0.4337,342.04153540500556,None,,,,,,,DEC010,001,2022_Jul_07_1710,2-25_cond_decay_EYE-try,2021.2.3,164.9975568938814,
left,1.0,0.75,1,0,0,0,0,1,0,1,0,1,6,16,7,,,,,,,,,,,,,,,1s,343.09606743601034,344.09605029100203,344.08994741301285,None,345.0899152070051,345.2838466660178,345.0899152070051,345.2838466660178,345.2838466660178,None,345.2838466660178,None,space,0.5014855999907013,345.2838466660178,None,0.1934,345.9189776190033,None,,,,,,,DEC010,001,2022_Jul_07_1710,2-25_cond_decay_EYE-try,2021.2.3,164.9975568938814,
right,1.0,0.75,0,0,0,0,0,1,0,1,0,1,7,17,3,,,,,,,,,,,,,,,1s,346.97357199099497,347.9747960960085,347.96260519200587,None,348.96260164599516,349.65961577999406,348.96260164599516,349.65961577999406,349.65961577999406,None,349.65961577999406,None,space,0.23770548301399685,349.65961577999406,None,0.6973,350.03536826901836,None,,,,,,,DEC010,001,2022_Jul_07_1710,2-25_cond_decay_EYE-try,2021.2.3,164.9975568938814,
left,0.75,1.0,0,0,0,0,0,1,0,1,0,1,8,18,1,,,,,,,,,,,,,,,1s,351.095967508998,352.09595644901856,352.08989774101065,None,353.08982386501157,353.47777348701493,353.08982386501157,353.47777348701493,353.4704137330118,None,353.4704137330118,None,space,0.2909918240038678,353.4704137330118,None,0.3813,353.89460197201697,None,,,,,,,DEC010,001,2022_Jul_07_1710,2-25_cond_decay_EYE-try,2021.2.3,164.9975568938814,
left,0.75,1.0,0,0,0,0,0,1,0,1,0,1,9,19,5,,,,,,,,,,,,,,,1s,354.9383514430083,355.93834298700676,355.9322815320047,None,356.93221009601257,357.6292333480087,356.93221009601257,357.6292333480087,357.6292333480087,None,357.6292333480087,None,space,0.3321799319819547,357.6292333480087,None,0.6948,358.0898313689977,None,,,,,,,DEC010,001,2022_Jul_07_1710,2-25_cond_decay_EYE-try,2021.2.3,164.9975568938814,
,,,,0,0,0,0,1,0,1,0,,,,,,,,,,,,,,,,,,,,,,,,,,,,,,,,,,,,,,,,,,,,,DEC010,001,2022_Jul_07_1710,2-25_cond_decay_EYE-try,2021.2.3,164.9975568938814,
left,0.75,1.0,0,0,0,0,0,2,0,2,0,0,0,0,2,,,,,,,,,358.9867953030043,None,358.9867953030043,None,358.9867953030043,None,3s,363.2338721739943,364.2352102060104,364.2230135629943,None,365.2230224450177,367.0412458930223,365.2230224450177,367.0412458930223,367.0412458930223,None,367.0412458930223,None,space,0.3840989430027548,367.0412458930223,None,1.8184,367.56244074899587,None,,,,,,,DEC010,001,2022_Jul_07_1710,2-25_cond_decay_EYE-try,2021.2.3,164.9975568938814,
right,1.0,0.75,0,0,0,0,0,2,0,2,0,0,1,1,3,,,,,,,,,,,,,,,3s,368.62173410199466,369.62295805400936,369.6109072230174,None,370.610884713009,371.04112446299405,370.610884713009,371.04112446299405,371.0338343010226,None,371.0338343010226,None,space,0.35951461698277853,371.0338343010226,None,0.4218,371.53209508702275,None,,,,,,,DEC010,001,2022_Jul_07_1710,2-25_cond_decay_EYE-try,2021.2.3,164.9975568938814,
right,0.75,1.0,1,0,0,0,0,2,0,2,0,0,2,2,5,,,,,,,,,,,,,,,3s,372.586628375022,373.58662902901415,373.5744928890199,None,374.5744762569957,377.38651184900664,374.5744762569957,377.38651184900664,377.38651184900664,None,377.38651184900664,None,space,0.3268214099807665,377.38651184900664,None,2.8089,377.84109925600933,None,,,,,,,DEC010,001,2022_Jul_07_1710,2-25_cond_decay_EYE-try,2021.2.3,164.9975568938814,
left,1.0,0.75,1,0,0,0,0,2,0,2,0,0,3,3,1,,,,,,,,,,,,,,,3s,378.901704865013,379.90168297701166,379.8895017390023,None,380.8895447770192,383.4228600130009,380.8895447770192,383.4228600130009,383.4154271740117,None,383.4154271740117,None,space,0.30599916601204313,383.4154271740117,None,2.5231,383.8592148650205,None,,,,,,,DEC010,001,2022_Jul_07_1710,2-25_cond_decay_EYE-try,2021.2.3,164.9975568938814,
left,0.75,1.0,0,0,0,0,0,2,0,2,0,0,4,4,8,,,,,,,,,,,,,,,3s,384.9137508540007,385.9137297690031,385.9076159260003,None,386.90765794800245,387.36818977902294,386.90765794800245,387.36818977902294,387.3608354740136,None,387.3608354740136,None,space,0.6644885480054654,387.3608354740136,None,0.4524,388.16219116101274,None,,,,,,,DEC010,001,2022_Jul_07_1710,2-25_cond_decay_EYE-try,2021.2.3,164.9975568938814,
left,0.75,1.0,0,0,0,0,0,2,0,2,0,0,5,5,0,,,,,,,,,,,,,,,3s,389.2105938940076,390.210649198998,390.20459030900383,None,391.2045676790003,393.3923814300215,391.2045676790003,393.3923814300215,393.38500104800914,None,393.38500104800914,None,space,0.3523463890014682,393.38500104800914,None,2.1799,393.8651498410036,None,,,,,,,DEC010,001,2022_Jul_07_1710,2-25_cond_decay_EYE-try,2021.2.3,164.9975568938814,
right,1.0,0.75,0,0,0,0,0,2,0,2,0,0,6,6,4,,,,,,,,,,,,,,,3s,394.91971028901753,395.919653296005,395.9136222700181,None,396.91359932301566,398.5499893829983,396.91359932301566,398.5499893829983,398.54251393899904,None,398.54251393899904,None,space,0.3068251649965532,398.54251393899904,None,1.6266,398.98628983000526,None,,,,,,,DEC010,001,2022_Jul_07_1710,2-25_cond_decay_EYE-try,2021.2.3,164.9975568938814,
left,0.75,1.0,0,0,0,0,0,2,0,2,0,0,7,7,7,,,,,,,,,,,,,,,3s,400.045599006,401.0468060300045,401.0346822940046,None,402.0346834740194,404.2226004480035,402.0346834740194,404.2226004480035,404.2226004480035,None,404.2226004480035,None,space,0.2987360679835547,404.2226004480035,None,2.1858,404.6589728730032,None,,,,,,,DEC010,001,2022_Jul_07_1710,2-25_cond_decay_EYE-try,2021.2.3,164.9975568938814,
right,1.0,0.75,0,0,0,0,0,2,0,2,0,0,8,8,6,,,,,,,,,,,,,,,3s,405.71826621500077,406.71954280501814,406.70742737100227,None,407.7073499679973,409.40435541499755,407.7073499679973,409.40435541499755,409.396995632007,None,409.396995632007,None,space,0.2764038229943253,409.396995632007,None,1.6861,409.81041905801976,None,,,,,,,DEC010,001,2022_Jul_07_1710,2-25_cond_decay_EYE-try,2021.2.3,164.9975568938814,
left,0.75,1.0,0,0,0,0,0,2,0,2,0,0,9,9,9,,,,,,,,,,,,,,,3s,410.86967303801794,411.8709961110144,411.8588365020114,None,412.858831036021,415.3376839419943,412.858831036021,415.3376839419943,415.33026682501077,None,415.33026682501077,None,space,0.27113702299539,415.33026682501077,None,2.4679,415.7363062860095,None,,,,,,,DEC010,001,2022_Jul_07_1710,2-25_cond_decay_EYE-try,2021.2.3,164.9975568938814,
left,0.75,1.0,0,0,0,0,0,2,0,2,0,1,0,10,8,,,,,,,,,,,,,,,3s,416.7860205800098,417.7860760060139,417.779949659016,None,418.7799430520099,421.33757204801077,418.7799430520099,421.33757204801077,421.33757204801077,None,421.33757204801077,None,space,0.6077551050111651,421.33757204801077,None,2.556,422.0829107890022,None,,,,,,,DEC010,001,2022_Jul_07_1710,2-25_cond_decay_EYE-try,2021.2.3,164.9975568938814,
right,1.0,0.75,0,0,0,0,0,2,0,2,0,1,1,11,6,,,,,,,,,,,,,,,3s,423.1435876490141,424.14358593701036,424.1375827040174,None,425.1375367230212,427.8767933350173,425.1375367230212,427.8767933350173,427.86944604400196,None,427.86944604400196,None,space,0.30797426600474864,427.86944604400196,None,2.7288,428.30715931300074,None,,,,,,,DEC010,001,2022_Jul_07_1710,2-25_cond_decay_EYE-try,2021.2.3,164.9975568938814,
left,1.0,0.75,1,0,0,0,0,2,0,2,0,1,2,12,1,,,,,,,,,,,,,,,3s,429.3616425979999,430.36163609899813,430.3494988720049,None,431.3494887709967,434.07678150202264,431.3494887709967,434.07678150202264,434.07678150202264,None,434.07678150202264,None,space,0.40461932701873593,434.07678150202264,None,2.7244,434.6101740890008,None,,,,,,,DEC010,001,2022_Jul_07_1710,2-25_cond_decay_EYE-try,2021.2.3,164.9975568938814,
right,1.0,0.75,0,0,0,0,0,2,0,2,0,1,3,13,4,,,,,,,,,,,,,,,3s,435.66940415199497,436.67069067800185,436.65855132602155,None,437.6585263409943,439.3918819380051,437.6585263409943,439.3918819380051,439.3918819380051,None,439.3918819380051,None,space,0.2735114329843782,439.3918819380051,None,1.7312,439.80398285001866,None,,,,,,,DEC010,001,2022_Jul_07_1710,2-25_cond_decay_EYE-try,2021.2.3,164.9975568938814,
left,0.75,1.0,0,0,0,0,0,2,0,2,0,1,4,14,9,,,,,,,,,,,,,,,3s,440.85845747499843,441.85847822000505,441.8524704070005,None,442.85238783599925,444.4887824600155,442.85238783599925,444.4887824600155,444.4887824600155,None,444.4887824600155,None,space,0.3286151739885099,444.4887824600155,None,1.6366,444.9554528380104,None,,,,,,,DEC010,001,2022_Jul_07_1710,2-25_cond_decay_EYE-try,2021.2.3,164.9975568938814,
right,1.0,0.75,0,0,0,0,0,2,0,2,0,1,5,15,3,,,,,,,,,,,,,,,3s,446.01605528901564,447.0160168330185,447.0099070669967,None,448.0098993880092,449.7250861939974,448.0098993880092,449.7250861939974,449.71765280602267,None,449.71765280602267,None,space,0.29969492499367334,449.71765280602267,None,1.707,450.1553752210166,None,,,,,,,DEC010,001,2022_Jul_07_1710,2-25_cond_decay_EYE-try,2021.2.3,164.9975568938814,
right,1.0,0.75,0,0,0,0,0,2,0,2,0,1,6,16,2,,,,,,,,,,,,,,,3s,451.21468664100394,452.215966534015,452.20384319801815,None,453.2037823370192,454.4098708090023,453.2037823370192,454.4098708090023,454.4024475089973,None,454.4024475089973,None,space,0.4549696739995852,454.4024475089973,None,1.1966,454.99037562901503,None,,,,,,,DEC010,001,2022_Jul_07_1710,2-25_cond_decay_EYE-try,2021.2.3,164.9975568938814,
right,0.75,1.0,1,0,0,0,0,2,0,2,0,1,7,17,5,,,,,,,,,,,,,,,3s,456.04016661300557,457.04013819701504,457.0279561369971,None,458.0279480620229,458.20376261600177,458.0279480620229,458.20376261600177,458.20376261600177,None,458.20376261600177,None,space,0.5016359709843528,458.20376261600177,None,0.176,458.8340662730043,None,,,,,,,DEC010,001,2022_Jul_07_1710,2-25_cond_decay_EYE-try,2021.2.3,164.9975568938814,
left,0.75,1.0,0,0,0,0,0,2,0,2,0,1,8,18,7,,,,,,,,,,,,,,,3s,459.89464106201194,460.8946334460052,460.882555787015,None,461.88244952700916,463.7371250310098,461.88244952700916,463.7371250310098,463.7296051910089,None,463.7296051910089,None,space,0.2798334969847929,463.7296051910089,None,1.8436,464.13703304401133,None,,,,,,,DEC010,001,2022_Jul_07_1710,2-25_cond_decay_EYE-try,2021.2.3,164.9975568938814,
left,0.75,1.0,0,0,0,0,0,2,0,2,0,1,9,19,0,,,,,,,,,,,,,,,3s,465.1855138100218,466.1854820199951,466.17337976800627,None,467.17330029202276,469.90060460200766,467.17330029202276,469.90060460200766,469.90060460200766,None,469.90060460200766,None,space,0.27678731599007733,469.90060460200766,None,2.7276,470.311405319022,None,,,,,,,DEC010,001,2022_Jul_07_1710,2-25_cond_decay_EYE-try,2021.2.3,164.9975568938814,
,,,,0,0,0,0,2,0,2,0,,,,,,,,,,,,,,,,,,,,,,,,,,,,,,,,,,,,,,,,,,,,,DEC010,001,2022_Jul_07_1710,2-25_cond_decay_EYE-try,2021.2.3,164.9975568938814,
left,0.75,1.0,0,0,0,0,0,3,0,3,0,0,0,0,3,,,,,,,,,471.2036165280151,None,471.2036165280151,None,471.2036165280151,None,10s,473.23388834801153,474.2338838810101,474.22780551499454,None,475.2277456150041,477.7549814610102,475.2277456150041,477.7549814610102,477.74767950800015,None,477.74767950800015,None,space,0.3336762000108138,477.74767950800015,None,2.5183,478.2143505650165,None,,,,,,,DEC010,001,2022_Jul_07_1710,2-25_cond_decay_EYE-try,2021.2.3,164.9975568938814,
left,0.75,1.0,0,0,0,0,0,3,0,3,0,0,1,1,7,,,,,,,,,,,,,,,10s,479.26404311001534,480.26410902201314,480.2579864420113,None,481.2579836200166,484.12467135401675,481.2579836200166,484.12467135401675,484.12467135401675,None,484.12467135401675,None,space,0.2767287780006882,484.12467135401675,None,2.8666,484.53071890200954,None,,,,,,,DEC010,001,2022_Jul_07_1710,2-25_cond_decay_EYE-try,2021.2.3,164.9975568938814,
left,0.75,1.0,0,0,0,0,0,3,0,3,0,0,2,2,8,,,,,,,,,,,,,,,10s,485.58525640302105,486.58518491100403,486.57918127899757,None,487.57917435100535,495.19724142801715,487.57917435100535,495.19724142801715,495.19724142801715,None,495.19724142801715,None,None,,495.19724142801715,None,7.6151,496.3245276969974,None,,,,,,,DEC010,001,2022_Jul_07_1710,2-25_cond_decay_EYE-try,2021.2.3,164.9975568938814,
right,0.75,1.0,1,0,0,0,0,3,0,3,0,0,3,3,5,,,,,,,,,,,,,,,10s,497.37906702799955,498.37898218701594,498.3729804950126,None,499.37297263302025,502.1850646380044,499.37297263302025,502.1850646380044,502.17768282000907,None,502.17768282000907,None,space,0.343758862989489,502.17768282000907,None,2.8021,502.65776636000373,None,,,,,,,DEC010,001,2022_Jul_07_1710,2-25_cond_decay_EYE-try,2021.2.3,164.9975568938814,
left,1.0,0.75,1,0,0,0,0,3,0,3,0,0,4,4,4,,,,,,,,,,,,,,,10s,503.71101622399874,504.71222748901346,504.70016792201204,None,505.7001736460079,511.603120062995,505.7001736460079,511.603120062995,511.5957637040119,None,511.5957637040119,None,space,0.35769645601976663,511.5957637040119,None,5.8943,512.0819094880135,None,,,,,,,DEC010,001,2022_Jul_07_1710,2-25_cond_decay_EYE-try,2021.2.3,164.9975568938814,
right,1.0,0.75,0,0,0,0,0,3,0,3,0,0,5,5,9,,,,,,,,,,,,,,,10s,513.1365298050223,514.1364498100011,514.1303786530043,None,515.130377516005,521.2272558020195,515.130377516005,521.2272558020195,521.2198883620149,None,521.2198883620149,None,space,0.3574956890079193,521.2198883620149,None,6.0863,521.7060212870128,None,,,,,,,DEC010,001,2022_Jul_07_1710,2-25_cond_decay_EYE-try,2021.2.3,164.9975568938814,
right,1.0,0.75,0,0,0,0,0,3,0,3,0,0,6,6,2,,,,,,,,,,,,,,,10s,522.7544480390206,523.7544954550103,523.7484293440066,None,524.7484134520055,528.8573788630019,524.7484134520055,528.8573788630019,528.8573788630019,None,528.8573788630019,None,space,0.33597073500277475,528.8573788630019,None,4.1053,529.3301752840052,None,,,,,,,DEC010,001,2022_Jul_07_1710,2-25_cond_decay_EYE-try,2021.2.3,164.9975568938814,
left,0.75,1.0,0,0,0,0,0,3,0,3,0,0,7,7,6,,,,,,,,,,,,,,,10s,530.384645017999,531.3847076820093,531.3725943099998,None,532.3725656630122,540.4511970960011,532.3725656630122,540.4511970960011,540.4511970960011,None,540.4511970960011,None,space,0.33414607201120816,540.4511970960011,None,8.078,540.9239755980088,None,,,,,,,DEC010,001,2022_Jul_07_1710,2-25_cond_decay_EYE-try,2021.2.3,164.9975568938814,
right,1.0,0.75,0,0,0,0,0,3,0,3,0,0,8,8,0,,,,,,,,,,,,,,,10s,541.983279328997,542.9845717730059,542.9724044160102,None,543.9724310620222,548.5239686600107,543.9724310620222,548.5239686600107,548.5239686600107,None,548.5239686600107,None,space,0.3254557430045679,548.5239686600107,None,4.5511,548.9831930230139,None,,,,,,,DEC010,001,2022_Jul_07_1710,2-25_cond_decay_EYE-try,2021.2.3,164.9975568938814,
right,1.0,0.75,0,0,0,0,0,3,0,3,0,0,9,9,1,,,,,,,,,,,,,,,10s,550.032902572013,551.0328975550074,551.0268992829951,None,552.0269511100196,553.2813962300133,552.0269511100196,553.2813962300133,553.2813962300133,None,553.2813962300133,None,None,,553.2813962300133,None,1.2554,554.4073633630178,None,,,,,,,DEC010,001,2022_Jul_07_1710,2-25_cond_decay_EYE-try,2021.2.3,164.9975568938814,
right,1.0,0.75,0,0,0,0,0,3,0,3,0,1,0,10,2,,,,,,,,,,,,,,,10s,555.4510524870129,556.4510098549945,556.4449677740049,None,557.4449288659962,559.7479857010185,557.4449288659962,559.7479857010185,559.7479857010185,None,559.7479857010185,None,space,0.3014437179954257,559.7479857010185,None,2.3021,560.1843578550033,None,,,,,,,DEC010,001,2022_Jul_07_1710,2-25_cond_decay_EYE-try,2021.2.3,164.9975568938814,
left,1.0,0.75,1,0,0,0,0,3,0,3,0,1,1,11,4,,,,,,,,,,,,,,,10s,561.2328356880171,562.2328153570124,562.226758852019,None,563.2267469190119,563.6388601259969,563.2267469190119,563.6388601259969,563.6314856660028,None,563.6314856660028,None,space,0.5298727939953096,563.6314856660028,None,0.4057,564.2994562929962,None,,,,,,,DEC010,001,2022_Jul_07_1710,2-25_cond_decay_EYE-try,2021.2.3,164.9975568938814,
right,1.0,0.75,0,0,0,0,0,3,0,3,0,1,2,12,0,,,,,,,,,,,,,,,10s,565.3539176240156,566.3539773109951,566.3478624859999,None,567.3478846960061,570.3236216120131,567.3478846960061,570.3236216120131,570.3236216120131,None,570.3236216120131,None,space,0.8617934729845729,570.3236216120131,None,2.9747,571.3236131680023,None,,,,,,,DEC010,001,2022_Jul_07_1710,2-25_cond_decay_EYE-try,2021.2.3,164.9975568938814,
left,0.75,1.0,0,0,0,0,0,3,0,3,0,1,3,13,3,,,,,,,,,,,,,,,10s,572.3842034469999,573.3841262980131,573.3780749890138,None,574.3781358940178,583.4203725389962,574.3781358940178,583.4203725389962,583.413007693016,None,583.413007693016,None,space,0.3084207560168579,583.413007693016,None,9.0336,583.8507752760197,None,,,,,,,DEC010,001,2022_Jul_07_1710,2-25_cond_decay_EYE-try,2021.2.3,164.9975568938814,
right,1.0,0.75,0,0,0,0,0,3,0,3,0,1,4,14,9,,,,,,,,,,,,,,,10s,584.9099572330015,585.911324967019,585.8991287700192,None,586.8991220350144,587.1597352490062,586.8991220350144,587.1597352490062,587.1597352490062,None,587.1597352490062,None,None,,587.1597352490062,None,0.2606,588.2870524449972,None,,,,,,,DEC010,001,2022_Jul_07_1710,2-25_cond_decay_EYE-try,2021.2.3,164.9975568938814,
right,1.0,0.75,0,0,0,0,0,3,0,3,0,1,5,15,1,,,,,,,,,,,,,,,10s,589.3295268590155,590.3293983280018,590.3233928230184,None,591.3233793190157,601.2201516500209,591.3233793190157,601.2201516500209,601.2201516500209,None,601.2201516500209,None,space,0.28520568399108015,601.2201516500209,None,9.8972,601.6492415880202,None,,,,,,,DEC010,001,2022_Jul_07_1710,2-25_cond_decay_EYE-try,2021.2.3,164.9975568938814,
left,0.75,1.0,0,0,0,0,0,3,0,3,0,1,6,16,7,,,,,,,,,,,,,,,10s,602.7050477589946,603.7050462040061,603.6929201150197,None,604.6929060550174,606.4200963250187,604.6929060550174,606.4200963250187,606.4200963250187,None,606.4200963250187,None,space,0.35729660000652075,606.4200963250187,None,1.7279,606.9050001610012,None,,,,,,,DEC010,001,2022_Jul_07_1710,2-25_cond_decay_EYE-try,2021.2.3,164.9975568938814,
left,0.75,1.0,0,0,0,0,0,3,0,3,0,1,7,17,8,,,,,,,,,,,,,,,10s,607.9595652710123,608.9595173160196,608.9534391369962,None,609.9533797980112,616.359414453007,609.9533797980112,616.359414453007,616.3520885120088,None,616.3520885120088,None,space,0.3453540670161601,616.3520885120088,None,6.3956,616.8260858410213,None,,,,,,,DEC010,001,2022_Jul_07_1710,2-25_cond_decay_EYE-try,2021.2.3,164.9975568938814,
right,0.75,1.0,1,0,0,0,0,3,0,3,0,1,8,18,5,,,,,,,,,,,,,,,10s,617.8792655800062,618.8806139180087,618.8684299809975,None,619.8684996679949,620.5169668050075,619.8684996679949,620.5169668050075,620.5169668050075,None,620.5169668050075,None,None,,620.5169668050075,None,0.6489,621.6442070750054,None,,,,,,,DEC010,001,2022_Jul_07_1710,2-25_cond_decay_EYE-try,2021.2.3,164.9975568938814,
left,0.75,1.0,0,0,0,0,0,3,0,3,0,1,9,19,6,,,,,,,,,,,,,,,10s,622.6987507150043,623.6987345899979,623.692668468022,None,624.6925940130022,626.6441258730192,624.6925940130022,626.6441258730192,626.636727975012,None,626.636727975012,None,space,0.15664087698678486,626.636727975012,None,1.9431,626.9289899520227,None,,,,,,,DEC010,001,2022_Jul_07_1710,2-25_cond_decay_EYE-try,2021.2.3,164.9975568938814,
,,,,0,0,0,0,3,0,3,0,,,,,,,,,,,,,,,,,,,,,,,,,,,,,,,,,,,,,,,,,,,,,DEC010,001,2022_Jul_07_1710,2-25_cond_decay_EYE-try,2021.2.3,164.9975568938814,
,,,,0,0,0,0,,,,,,,,,,,,,,,,,,,,,,,,,,,,,,,,,,,,,,,,,,,627.8198934670072,None,627.8198934670072,None,627.8198934670072,None,DEC010,001,2022_Jul_07_1710,2-25_cond_decay_EYE-try,2021.2.3,164.9975568938814,
right,1.0,0.75,0,1,0,1,0,0,0,0,0,0,0,0,5,,,,,,,,,632.8198450870113,None,632.8198450870113,None,632.8198450870113,None,1s,636.7350527450035,637.7349300619971,637.7228222890117,None,638.7227861910069,639.0318188240053,638.7227861910069,639.0318188240053,639.0318188240053,None,639.0318188240053,None,space,0.37754466698970646,639.0318188240053,None,0.3081,639.5470269420184,None,,,,,,,DEC010,001,2022_Jul_07_1710,2-25_cond_decay_EYE-try,2021.2.3,164.9975568938814,
left,0.75,1.0,0,1,0,1,0,0,0,0,0,0,1,1,3,,,,,,,,,,,,,,,1s,640.6075758270163,641.6076087620168,641.6015441869968,None,642.6015298060083,643.4621318280115,642.6015298060083,643.4621318280115,643.4547057000163,None,643.4547057000163,None,space,0.3147346159967128,643.4547057000163,None,0.8505,643.8984867380059,None,,,,,,,DEC010,001,2022_Jul_07_1710,2-25_cond_decay_EYE-try,2021.2.3,164.9975568938814,
left,0.75,1.0,0,1,0,1,0,0,0,0,0,0,2,2,8,,,,,,,,,,,,,,,1s,644.9468913860037,645.9468858299952,645.9408841390104,None,646.9408918099944,647.2863252910029,646.9408918099944,647.2863252910029,647.2788911240059,None,647.2788911240059,None,space,0.25050045299576595,647.2788911240059,None,0.3355,647.6681346480036,None,,,,,,,DEC010,001,2022_Jul_07_1710,2-25_cond_decay_EYE-try,2021.2.3,164.9975568938814,
left,0.75,1.0,0,1,0,1,0,0,0,0,0,0,3,3,0,,,,,,,,,,,,,,,1s,648.7166115760047,649.7166048900108,649.7105680990207,None,650.7104647649976,651.5771925750014,650.7104647649976,651.5771925750014,651.5771925750014,None,651.5771925750014,None,space,0.21616530200117268,651.5771925750014,None,0.8674,651.9226194689982,None,,,,,,,DEC010,001,2022_Jul_07_1710,2-25_cond_decay_EYE-try,2021.2.3,164.9975568938814,
left,0.75,1.0,0,1,0,1,0,0,0,0,0,0,4,4,1,,,,,,,,,,,,,,,1s,652.9771197160007,653.9770974900166,653.9711029890168,None,654.9710940679943,655.6861475850164,654.9710940679943,655.6861475850164,655.6861475850164,None,655.6861475850164,None,space,0.35523677300079726,655.6861475850164,None,0.7149,656.1710608130088,None,,,,,,,DEC010,001,2022_Jul_07_1710,2-25_cond_decay_EYE-try,2021.2.3,164.9975568938814,
right,1.0,0.75,0,1,0,1,0,0,0,0,0,0,5,5,2,,,,,,,,,,,,,,,1s,657.2303606600035,658.231592872995,658.2195405160019,None,659.2195253670216,659.6982275040064,659.2195253670216,659.6982275040064,659.6908797580109,None,659.6908797580109,None,space,0.2465601930161938,659.6908797580109,None,0.4693,660.0740509350144,None,,,,,,,DEC010,001,2022_Jul_07_1710,2-25_cond_decay_EYE-try,2021.2.3,164.9975568938814,
right,1.0,0.75,0,1,0,1,0,0,0,0,0,0,6,6,4,,,,,,,,,,,,,,,1s,661.1286202100164,662.1285044850083,662.1224450260052,None,663.122512883012,663.6193810389959,663.122512883012,663.6193810389959,663.6193810389959,None,663.6193810389959,None,space,0.2220574640086852,663.6193810389959,None,0.4969,663.970965585002,None,,,,,,,DEC010,001,2022_Jul_07_1710,2-25_cond_decay_EYE-try,2021.2.3,164.9975568938814,
left,1.0,0.75,1,1,0,1,0,0,0,0,0,0,7,7,7,,,,,,,,,,,,,,,1s,665.0315007950121,666.0315665300004,666.0255506999965,None,667.0255382750183,667.570865250018,667.0255382750183,667.570865250018,667.5635856870213,None,667.5635856870213,None,space,0.397797518002335,667.5635856870213,None,0.5349,668.0981952020084,None,,,,,,,DEC010,001,2022_Jul_07_1710,2-25_cond_decay_EYE-try,2021.2.3,164.9975568938814,
right,1.0,0.75,0,1,0,1,0,0,0,0,0,0,8,8,6,,,,,,,,,,,,,,,1s,669.1527507620049,670.152638982021,670.1406143220083,None,671.1405583420128,672.0799828820163,671.1405583420128,672.0799828820163,672.0799828820163,None,672.0799828820163,None,space,0.2654692819924094,672.0799828820163,None,0.9372,672.4738972610212,None,,,,,,,DEC010,001,2022_Jul_07_1710,2-25_cond_decay_EYE-try,2021.2.3,164.9975568938814,
right,0.75,1.0,1,1,0,1,0,0,0,0,0,0,9,9,9,,,,,,,,,,,,,,,1s,673.5283679970016,674.5283474010066,674.522276720003,None,675.5224149310088,676.3465214949974,675.5224149310088,676.3465214949974,676.339154796995,None,676.339154796995,None,space,0.41420822401414625,676.339154796995,None,0.8147,676.8920351010165,None,,,,,,,DEC010,001,2022_Jul_07_1710,2-25_cond_decay_EYE-try,2021.2.3,164.9975568938814,
left,0.75,1.0,0,1,0,1,0,0,0,0,0,1,0,10,0,,,,,,,,,,,,,,,1s,677.9452614350012,678.9464949690155,678.9343493990018,None,679.9344325440179,680.1647264230123,679.9344325440179,680.1647264230123,680.1647264230123,None,680.1647264230123,None,space,0.42063067501294427,680.1647264230123,None,0.2292,680.7222738050041,None,,,,,,,DEC010,001,2022_Jul_07_1710,2-25_cond_decay_EYE-try,2021.2.3,164.9975568938814,
right,1.0,0.75,0,1,0,1,0,0,0,0,0,1,1,11,4,,,,,,,,,,,,,,,1s,681.7754678839992,682.7767357340199,682.7646226920187,None,683.7646237669978,684.6737713610055,683.7646237669978,684.6737713610055,684.6737713610055,None,684.6737713610055,None,space,0.2555850700009614,684.6737713610055,None,0.9083,685.0677746290166,None,,,,,,,DEC010,001,2022_Jul_07_1710,2-25_cond_decay_EYE-try,2021.2.3,164.9975568938814,
left,0.75,1.0,0,1,0,1,0,0,0,0,0,1,2,12,3,,,,,,,,,,,,,,,1s,686.1269764040189,687.1282089980086,687.1161587410024,None,688.1161469990038,688.4373615030199,688.1161469990038,688.4373615030199,688.4373615030199,None,688.4373615030199,None,space,0.291993855003966,688.4373615030199,None,0.3194,688.8676343100087,None,,,,,,,DEC010,001,2022_Jul_07_1710,2-25_cond_decay_EYE-try,2021.2.3,164.9975568938814,
left,1.0,0.75,1,1,0,1,0,0,0,0,0,1,3,13,7,,,,,,,,,,,,,,,1s,689.9222605180112,690.9222287450102,690.9160374920175,None,691.9160218820034,692.800928785,691.9160218820034,692.800928785,692.7935021320009,None,692.7935021320009,None,space,0.24786407200735994,692.7935021320009,None,0.8757,693.1706132999971,None,,,,,,,DEC010,001,2022_Jul_07_1710,2-25_cond_decay_EYE-try,2021.2.3,164.9975568938814,
right,0.75,1.0,1,1,0,1,0,0,0,0,0,1,4,14,9,,,,,,,,,,,,,,,1s,694.2298592900042,695.2312217190047,695.2190923460003,None,696.2190713559976,696.5159761130053,696.2190713559976,696.5159761130053,696.5086843630124,None,696.5086843630124,None,space,0.38869853399228305,696.5086843630124,None,0.2887,697.0298803040059,None,,,,,,,DEC010,001,2022_Jul_07_1710,2-25_cond_decay_EYE-try,2021.2.3,164.9975568938814,
right,1.0,0.75,0,1,0,1,0,0,0,0,0,1,5,15,2,,,,,,,,,,,,,,,1s,698.0856379850011,699.085699045012,699.0735686450207,None,700.0735069049988,700.425105176022,700.0735069049988,700.425105176022,700.425105176022,None,700.425105176022,None,space,0.38424421998206526,700.425105176022,None,0.3474,700.9462711719971,None,,,,,,,DEC010,001,2022_Jul_07_1710,2-25_cond_decay_EYE-try,2021.2.3,164.9975568938814,
right,1.0,0.75,0,1,0,1,0,0,0,0,0,1,6,16,6,,,,,,,,,,,,,,,1s,702.0008178730204,703.0007417850138,702.994745981996,None,703.9947369620204,704.237167823012,703.9947369620204,704.237167823012,704.2297257390164,None,704.2297257390164,None,space,0.32365815702360123,704.2297257390164,None,0.2325,704.6916958630027,None,,,,,,,DEC010,001,2022_Jul_07_1710,2-25_cond_decay_EYE-try,2021.2.3,164.9975568938814,
left,0.75,1.0,0,1,0,1,0,0,0,0,0,1,7,17,8,,,,,,,,,,,,,,,1s,705.7522772010125,706.7522764239984,706.746166373021,None,707.7461648390163,708.6128850649984,707.7461648390163,708.6128850649984,708.605444854009,None,708.605444854009,None,space,0.25992966699413955,708.605444854009,None,0.8577,708.994681946002,None,,,,,,,DEC010,001,2022_Jul_07_1710,2-25_cond_decay_EYE-try,2021.2.3,164.9975568938814,
right,1.0,0.75,0,1,0,1,0,0,0,0,0,1,8,18,5,,,,,,,,,,,,,,,1s,710.0551892220101,711.0552457419981,711.0491292130027,None,712.0492013409967,712.2552451690135,712.0492013409967,712.2552451690135,712.247826308012,None,712.247826308012,None,space,0.3936213749984745,712.247826308012,None,0.1957,712.7704088860191,None,,,,,,,DEC010,001,2022_Jul_07_1710,2-25_cond_decay_EYE-try,2021.2.3,164.9975568938814,
left,0.75,1.0,0,1,0,1,0,0,0,0,0,1,9,19,1,,,,,,,,,,,,,,,1s,713.8309031520039,714.8309896879946,714.8188469519955,None,715.8187625580176,716.0309684780077,715.8187625580176,716.0309684780077,716.0309684780077,None,716.0309684780077,None,space,0.37047341899597086,716.0309684780077,None,0.2087,716.5400309039978,None,,,,,,,DEC010,001,2022_Jul_07_1710,2-25_cond_decay_EYE-try,2021.2.3,164.9975568938814,
,,,,1,0,1,0,0,0,0,0,,,,,,,,,,,,,,,,,,,,,,,,,,,,,,,,,,,,,,,,,,,,,DEC010,001,2022_Jul_07_1710,2-25_cond_decay_EYE-try,2021.2.3,164.9975568938814,
left,0.75,1.0,0,1,0,1,0,1,0,1,0,0,0,0,3,,,,,,,,,717.4356947120104,None,717.4356947120104,None,717.4356947120104,None,5s,720.9521001579997,721.9520466540125,721.9460047930188,None,722.9459725860215,725.127817857021,722.9459725860215,725.127817857021,725.127817857021,None,725.127817857021,None,space,0.26563480400363915,725.127817857021,None,2.1774,725.5265066460124,None,,,,,,,DEC010,001,2022_Jul_07_1710,2-25_cond_decay_EYE-try,2021.2.3,164.9975568938814,
right,0.75,1.0,1,1,0,1,0,1,0,1,0,0,1,1,7,,,,,,,,,,,,,,,5s,726.5809677280195,727.5823330570129,727.5702413760009,None,728.5701753660105,731.9822187910031,728.5701753660105,731.9822187910031,731.9822187910031,None,731.9822187910031,None,space,0.3631658739759587,731.9822187910031,None,3.4107,732.4731658610108,None,,,,,,,DEC010,001,2022_Jul_07_1710,2-25_cond_decay_EYE-try,2021.2.3,164.9975568938814,
right,1.0,0.75,0,1,0,1,0,1,0,1,0,0,2,2,6,,,,,,,,,,,,,,,5s,733.5217151380202,734.5216221850133,734.515584430017,None,735.5155056780204,735.8125461540185,735.5155056780204,735.8125461540185,735.8125461540185,None,735.8125461540185,None,space,0.5489032370096538,735.8125461540185,None,0.2956,736.4960623299994,None,,,,,,,DEC010,001,2022_Jul_07_1710,2-25_cond_decay_EYE-try,2021.2.3,164.9975568938814,
left,0.75,1.0,0,1,0,1,0,1,0,1,0,0,3,3,2,,,,,,,,,,,,,,,5s,737.5519016369944,738.5518925790093,738.5397083520074,None,739.5397137550171,740.4003477189981,739.5397137550171,740.4003477189981,740.4003477189981,None,740.4003477189981,None,space,0.2890853180142585,740.4003477189981,None,0.857,740.8232806879969,None,,,,,,,DEC010,001,2022_Jul_07_1710,2-25_cond_decay_EYE-try,2021.2.3,164.9975568938814,
left,0.75,1.0,0,1,0,1,0,1,0,1,0,0,4,4,9,,,,,,,,,,,,,,,5s,741.8729852359975,742.8730573930079,742.8669317740132,None,743.866985900997,746.3578448700137,743.866985900997,746.3578448700137,746.3505451150122,None,746.3505451150122,None,space,0.3228413219912909,746.3505451150122,None,2.4832,746.8123964650149,None,,,,,,,DEC010,001,2022_Jul_07_1710,2-25_cond_decay_EYE-try,2021.2.3,164.9975568938814,
right,1.0,0.75,0,1,0,1,0,1,0,1,0,0,5,5,5,,,,,,,,,,,,,,,5s,747.8669269160018,748.8669149200141,748.8547354290204,None,749.8546916860214,751.6608281140216,749.8546916860214,751.6608281140216,751.6608281140216,None,751.6608281140216,None,None,,751.6608281140216,None,1.8026,752.788088375004,None,,,,,,,DEC010,001,2022_Jul_07_1710,2-25_cond_decay_EYE-try,2021.2.3,164.9975568938814,
right,1.0,0.75,0,1,0,1,0,1,0,1,0,0,6,6,1,,,,,,,,,,,,,,,5s,753.8364986890228,754.8365001979982,754.8243526169972,None,755.824354123004,758.9819347700104,755.824354123004,758.9819347700104,758.9819347700104,None,758.9819347700104,None,space,0.3075061249837745,758.9819347700104,None,3.1538,759.4244287380134,None,,,,,,,DEC010,001,2022_Jul_07_1710,2-25_cond_decay_EYE-try,2021.2.3,164.9975568938814,
left,0.75,1.0,0,1,0,1,0,1,0,1,0,0,7,7,4,,,,,,,,,,,,,,,5s,760.4727754729975,761.4728179340018,761.4607001029945,None,762.4606162440032,767.2423843819997,762.4606162440032,767.2423843819997,767.2423843819997,None,767.2423843819997,None,space,0.3110668290173635,767.2423843819997,None,4.7799,767.6909283550049,None,,,,,,,DEC010,001,2022_Jul_07_1710,2-25_cond_decay_EYE-try,2021.2.3,164.9975568938814,
left,0.75,1.0,0,1,0,1,0,1,0,1,0,0,8,8,8,,,,,,,,,,,,,,,5s,768.7454915120034,769.7454379950068,769.7393415280094,None,770.7393922769988,772.9089831750025,770.7393922769988,772.9089831750025,772.9016192170093,None,772.9016192170093,None,space,0.379762730008224,772.9016192170093,None,2.1616,773.4181200820021,None,,,,,,,DEC010,001,2022_Jul_07_1710,2-25_cond_decay_EYE-try,2021.2.3,164.9975568938814,
right,1.0,0.75,0,1,0,1,0,1,0,1,0,0,9,9,0,,,,,,,,,,,,,,,5s,774.4774203500128,775.4786607889982,775.4665273709979,None,776.4665784329991,777.4544215520145,776.4665784329991,777.4544215520145,777.4544215520145,None,777.4544215520145,None,space,0.49904544901801273,777.4544215520145,None,0.9863,778.0908054330212,None,,,,,,,DEC010,001,2022_Jul_07_1710,2-25_cond_decay_EYE-try,2021.2.3,164.9975568938814,
right,1.0,0.75,0,1,0,1,0,1,0,1,0,1,0,10,6,,,,,,,,,,,,,,,5s,779.1392083640094,780.1391974190192,780.1331394760055,None,781.1331994250068,782.0422611779941,781.1331994250068,782.0422611779941,782.0422611779941,None,782.0422611779941,None,space,0.34314621301018633,782.0422611779941,None,0.9059,782.5197450810228,None,,,,,,,DEC010,001,2022_Jul_07_1710,2-25_cond_decay_EYE-try,2021.2.3,164.9975568938814,
right,1.0,0.75,0,1,0,1,0,1,0,1,0,1,1,11,5,,,,,,,,,,,,,,,5s,783.5742062350037,784.5755673980166,784.5634552760166,None,785.5634344190184,788.4967360470037,785.5634344190184,788.4967360470037,788.4967360470037,None,788.4967360470037,None,space,0.2886592489958275,788.4967360470037,None,2.9339,788.9149152470054,None,,,,,,,DEC010,001,2022_Jul_07_1710,2-25_cond_decay_EYE-try,2021.2.3,164.9975568938814,
right,1.0,0.75,0,1,0,1,0,1,0,1,0,1,2,12,1,,,,,,,,,,,,,,,5s,789.9742008490139,790.9755041919998,790.9633739630226,None,791.9633531620202,794.605701345019,791.9633531620202,794.605701345019,794.605701345019,None,794.605701345019,None,space,0.3076751669868827,794.605701345019,None,2.6418,795.0468766890117,None,,,,,,,DEC010,001,2022_Jul_07_1710,2-25_cond_decay_EYE-try,2021.2.3,164.9975568938814,
left,0.75,1.0,0,1,0,1,0,1,0,1,0,1,3,13,4,,,,,,,,,,,,,,,5s,796.1026472469966,797.1026307030115,797.090573782014,None,798.090566060011,800.3935725140036,798.090566060011,800.3935725140036,800.3935725140036,None,800.3935725140036,None,space,0.30381692899391055,800.3935725140036,None,2.3015,800.8359760220046,None,,,,,,,DEC010,001,2022_Jul_07_1710,2-25_cond_decay_EYE-try,2021.2.3,164.9975568938814,
right,0.75,1.0,1,1,0,1,0,1,0,1,0,1,4,14,7,,,,,,,,,,,,,,,5s,801.8965740590065,802.8965616550122,802.8904361030145,None,803.8904769960209,805.0965359810216,803.8904769960209,805.0965359810216,805.0965359810216,None,805.0965359810216,None,space,0.3608552940131631,805.0965359810216,None,1.2057,805.5874289680214,None,,,,,,,DEC010,001,2022_Jul_07_1710,2-25_cond_decay_EYE-try,2021.2.3,164.9975568938814,
left,0.75,1.0,0,1,0,1,0,1,0,1,0,1,5,15,9,,,,,,,,,,,,,,,5s,806.6419657320075,807.6419136589975,807.6358874930011,None,808.6358364830085,812.1449381959974,808.6358364830085,812.1449381959974,812.1375129170192,None,812.1375129170192,None,space,0.2799416320049204,812.1375129170192,None,3.4981,812.5449280440225,None,,,,,,,DEC010,001,2022_Jul_07_1710,2-25_cond_decay_EYE-try,2021.2.3,164.9975568938814,
left,0.75,1.0,0,1,0,1,0,1,0,1,0,1,6,16,2,,,,,,,,,,,,,,,5s,813.598101806012,814.5993766970059,814.5873312670155,None,815.5873088210064,818.8660661489994,815.5873088210064,818.8660661489994,818.858641504019,None,818.858641504019,None,None,,818.858641504019,None,3.2701,819.9859637430054,None,,,,,,,DEC010,001,2022_Jul_07_1710,2-25_cond_decay_EYE-try,2021.2.3,164.9975568938814,
right,1.0,0.75,0,1,0,1,0,1,0,1,0,1,7,17,0,,,,,,,,,,,,,,,5s,821.0417283700081,822.041720098001,822.03573327302,None,823.0356818890141,827.6236632160144,823.0356818890141,827.6236632160144,827.6161693530157,None,827.6161693530157,None,space,0.36122983499080874,827.6161693530157,None,4.5777,828.1205018260225,None,,,,,,,DEC010,001,2022_Jul_07_1710,2-25_cond_decay_EYE-try,2021.2.3,164.9975568938814,
left,0.75,1.0,0,1,0,1,0,1,0,1,0,1,8,18,8,,,,,,,,,,,,,,,5s,829.173758932011,830.1749562479963,830.1628359229944,None,831.162808249006,834.6355549050204,831.162808249006,834.6355549050204,834.6355549050204,None,834.6355549050204,None,space,0.5978775949915871,834.6355549050204,None,3.4737,835.3628249879985,None,,,,,,,DEC010,001,2022_Jul_07_1710,2-25_cond_decay_EYE-try,2021.2.3,164.9975568938814,
left,1.0,0.75,1,1,0,1,0,1,0,1,0,1,9,19,3,,,,,,,,,,,,,,,5s,836.4174361650075,837.4172912000213,837.4113127180026,None,838.4113555920194,838.9931026510021,838.4113555920194,838.9931026510021,838.9931026510021,None,838.9931026510021,None,space,0.5762859550013673,838.9931026510021,None,0.5782,839.7081693969958,None,,,,,,,DEC010,001,2022_Jul_07_1710,2-25_cond_decay_EYE-try,2021.2.3,164.9975568938814,
,,,,1,0,1,0,1,0,1,0,,,,,,,,,,,,,,,,,,,,,,,,,,,,,,,,,,,,,,,,,,,,,DEC010,001,2022_Jul_07_1710,2-25_cond_decay_EYE-try,2021.2.3,164.9975568938814,
left,0.75,1.0,0,1,0,1,0,2,0,2,0,0,0,0,1,,,,,,,,,840.6039053460117,None,840.6039053460117,None,840.6039053460117,None,3s,846.9249689170101,847.9262998019985,847.9141960680136,None,848.9141241530015,851.5747696930193,848.9141241530015,851.5747696930193,851.5747696930193,None,851.5747696930193,None,space,0.2906885090051219,851.5747696930193,None,2.6604,851.9989896269981,None,,,,,,,DEC010,001,2022_Jul_07_1710,2-25_cond_decay_EYE-try,2021.2.3,164.9975568938814,
left,1.0,0.75,1,1,0,1,0,2,0,2,0,0,1,1,8,,,,,,,,,,,,,,,3s,853.0474249109975,854.0473855019954,854.0413986670028,None,855.0412963340059,856.1807705009996,855.0412963340059,856.1807705009996,856.1733321789943,None,856.1733321789943,None,space,0.5160746870096773,856.1733321789943,None,1.132,856.821873014007,None,,,,,,,DEC010,001,2022_Jul_07_1710,2-25_cond_decay_EYE-try,2021.2.3,164.9975568938814,
right,0.75,1.0,1,1,0,1,0,2,0,2,0,0,2,2,9,,,,,,,,,,,,,,,3s,857.8776529130118,858.8776947600127,858.865608638007,None,859.8655596300086,861.1382413470128,859.8655596300086,861.1382413470128,861.1382413470128,None,861.1382413470128,None,space,0.29522245601401664,861.1382413470128,None,1.2703,861.5625057819998,None,,,,,,,DEC010,001,2022_Jul_07_1710,2-25_cond_decay_EYE-try,2021.2.3,164.9975568938814,
left,0.75,1.0,0,1,0,1,0,2,0,2,0,0,3,3,4,,,,,,,,,,,,,,,3s,862.6170641670178,863.6169786100218,863.6110398200108,None,864.6108862780093,867.4472458150121,864.6108862780093,867.4472458150121,867.4399498100101,None,867.4399498100101,None,space,0.45751830100198276,867.4399498100101,None,2.8259,868.0351659129956,None,,,,,,,DEC010,001,2022_Jul_07_1710,2-25_cond_decay_EYE-try,2021.2.3,164.9975568938814,
right,1.0,0.75,0,1,0,1,0,2,0,2,0,0,4,4,3,,,,,,,,,,,,,,,3s,869.0897145190102,870.0896889849973,870.0836293130124,None,871.0836073920073,871.7078625319991,871.0836073920073,871.7078625319991,871.7004310699995,None,871.7004310699995,None,space,0.6049897390184924,871.7004310699995,None,0.6154,872.4351201140089,None,,,,,,,DEC010,001,2022_Jul_07_1710,2-25_cond_decay_EYE-try,2021.2.3,164.9975568938814,
left,0.75,1.0,0,1,0,1,0,2,0,2,0,0,5,5,2,,,,,,,,,,,,,,,3s,873.4957210340071,874.4957014370011,874.4896195890033,None,875.4896244160191,877.3441317130055,875.4896244160191,877.3441317130055,877.3367328620225,None,877.3367328620225,None,space,0.2967317180009559,877.3367328620225,None,1.8456,877.7623080440098,None,,,,,,,DEC010,001,2022_Jul_07_1710,2-25_cond_decay_EYE-try,2021.2.3,164.9975568938814,
right,1.0,0.75,0,1,0,1,0,2,0,2,0,0,6,6,0,,,,,,,,,,,,,,,3s,878.8216358759964,879.822851623001,879.8107175360201,None,880.8108459340001,882.3743798060168,880.8108459340001,882.3743798060168,882.3743798060168,None,882.3743798060168,None,space,0.4271023720211815,882.3743798060168,None,1.5625,882.9380189750227,None,,,,,,,DEC010,001,2022_Jul_07_1710,2-25_cond_decay_EYE-try,2021.2.3,164.9975568938814,
left,0.75,1.0,0,1,0,1,0,2,0,2,0,0,7,7,6,,,,,,,,,,,,,,,3s,883.9986298550211,884.9986124380084,884.9864984570013,None,885.9864702310006,887.9622055980144,885.9864702310006,887.9622055980144,887.9622055980144,None,887.9622055980144,None,space,0.26319466799031943,887.9622055980144,None,1.9721,888.3621813160134,None,,,,,,,DEC010,001,2022_Jul_07_1710,2-25_cond_decay_EYE-try,2021.2.3,164.9975568938814,
right,1.0,0.75,0,1,0,1,0,2,0,2,0,0,8,8,5,,,,,,,,,,,,,,,3s,889.4214116340154,890.4227230380056,890.410658726003,None,891.4106413520058,892.3621338090161,891.4106413520058,892.3621338090161,892.3621338090161,None,892.3621338090161,None,space,0.39127149898558855,892.3621338090161,None,0.95,892.883343916008,None,,,,,,,DEC010,001,2022_Jul_07_1710,2-25_cond_decay_EYE-try,2021.2.3,164.9975568938814,
left,0.75,1.0,0,1,0,1,0,2,0,2,0,0,9,9,7,,,,,,,,,,,,,,,3s,893.9438747219974,894.9439278930076,894.9317219570221,None,895.931732891011,897.9378039090079,895.931732891011,897.9378039090079,897.943825067021,None,897.943825067021,None,space,0.2975806559843477,897.943825067021,None,2.0067,898.3802442760207,None,,,,,,,DEC010,001,2022_Jul_07_1710,2-25_cond_decay_EYE-try,2021.2.3,164.9975568938814,
left,0.75,1.0,0,1,0,1,0,2,0,2,0,1,0,10,6,,,,,,,,,,,,,,,3s,899.4286813820072,900.4286382670107,900.4226602310082,None,901.4225824990135,903.3861885240185,901.4225824990135,903.3861885240185,903.3861885240185,None,903.3861885240185,None,space,0.8392119110212661,903.3861885240185,None,1.9633,904.3619968389976,None,,,,,,,DEC010,001,2022_Jul_07_1710,2-25_cond_decay_EYE-try,2021.2.3,164.9975568938814,
left,0.75,1.0,0,1,0,1,0,2,0,2,0,1,1,11,4,,,,,,,,,,,,,,,3s,905.4104041930113,906.4105275110051,906.4043327459949,None,907.4043222799955,907.6467986110074,907.4043222799955,907.6467986110074,907.6467986110074,None,907.6467986110074,None,space,0.4826771010120865,907.6467986110074,None,0.2434,908.2589194840111,None,,,,,,,DEC010,001,2022_Jul_07_1710,2-25_cond_decay_EYE-try,2021.2.3,164.9975568938814,
right,0.75,1.0,1,1,0,1,0,2,0,2,0,1,2,12,9,,,,,,,,,,,,,,,3s,909.3194540980039,910.319510967005,910.313384412002,None,911.3134754000057,912.4952332370158,911.3134754000057,912.4952332370158,912.4878102540097,None,912.4878102540097,None,space,0.34566708898637444,912.4878102540097,None,1.1724,912.9666604679951,None,,,,,,,DEC010,001,2022_Jul_07_1710,2-25_cond_decay_EYE-try,2021.2.3,164.9975568938814,
left,0.75,1.0,0,1,0,1,0,2,0,2,0,1,3,13,2,,,,,,,,,,,,,,,3s,914.0224488130189,915.0224564270175,915.0164423940005,None,916.0163397790166,918.4830510159954,916.0163397790166,918.4830510159954,918.475680211006,None,918.475680211006,None,space,0.47771789800026454,918.475680211006,None,2.4563,919.0830206700193,None,,,,,,,DEC010,001,2022_Jul_07_1710,2-25_cond_decay_EYE-try,2021.2.3,164.9975568938814,
right,1.0,0.75,0,1,0,1,0,2,0,2,0,1,4,14,3,,,,,,,,,,,,,,,3s,920.1436134030228,921.1436207969964,921.1374996009981,None,922.1375763899996,923.9132070680207,922.1375763899996,923.9132070680207,923.9059210139967,None,923.9059210139967,None,space,0.503491530980682,923.9059210139967,None,1.7673,924.5375153770146,None,,,,,,,DEC010,001,2022_Jul_07_1710,2-25_cond_decay_EYE-try,2021.2.3,164.9975568938814,
left,0.75,1.0,0,1,0,1,0,2,0,2,0,1,5,15,7,,,,,,,,,,,,,,,3s,925.596789555013,926.5980899640126,926.5858978450124,None,927.5858933260024,927.767782320996,927.5858933260024,927.767782320996,927.7603362500085,None,927.7603362500085,None,space,0.3770769570255652,927.7603362500085,None,0.1715,928.2647225700202,None,,,,,,,DEC010,001,2022_Jul_07_1710,2-25_cond_decay_EYE-try,2021.2.3,164.9975568938814,
right,1.0,0.75,0,1,0,1,0,2,0,2,0,1,6,16,0,,,,,,,,,,,,,,,3s,929.3240370840067,930.3252940440143,930.3132289840141,None,931.3132323580212,933.6949722350109,931.3132323580212,933.6949722350109,933.6875546200026,None,933.6875546200026,None,space,0.2658550979977008,933.6875546200026,None,2.3717,934.08285166102,None,,,,,,,DEC010,001,2022_Jul_07_1710,2-25_cond_decay_EYE-try,2021.2.3,164.9975568938814,
left,1.0,0.75,1,1,0,1,0,2,0,2,0,1,7,17,8,,,,,,,,,,,,,,,3s,935.1373830730154,936.1373602540116,936.1252123220183,None,937.1252481190022,937.8463756050041,937.1252481190022,937.8463756050041,937.8463756050041,None,937.8463756050041,None,space,0.491009715013206,937.8463756050041,None,0.7201,938.4693765310221,None,,,,,,,DEC010,001,2022_Jul_07_1710,2-25_cond_decay_EYE-try,2021.2.3,164.9975568938814,
right,1.0,0.75,0,1,0,1,0,2,0,2,0,1,8,18,1,,,,,,,,,,,,,,,3s,939.525199974014,940.5251205800159,940.5190812770161,None,941.5190422430169,943.4463705219969,941.5190422430169,943.4463705219969,943.4463705219969,None,943.4463705219969,None,space,0.2990951910032891,943.4463705219969,None,1.927,943.8827252339979,None,,,,,,,DEC010,001,2022_Jul_07_1710,2-25_cond_decay_EYE-try,2021.2.3,164.9975568938814,
right,1.0,0.75,0,1,0,1,0,2,0,2,0,1,9,19,5,,,,,,,,,,,,,,,3s,944.9371915789961,945.9372659700166,945.9311234900088,None,946.9311827710189,948.737221006013,946.9311827710189,948.737221006013,948.737221006013,None,948.737221006013,None,space,0.27218270098092034,948.737221006013,None,1.8046,949.1372023239965,None,,,,,,,DEC010,001,2022_Jul_07_1710,2-25_cond_decay_EYE-try,2021.2.3,164.9975568938814,
,,,,1,0,1,0,2,0,2,0,,,,,,,,,,,,,,,,,,,,,,,,,,,,,,,,,,,,,,,,,,,,,DEC010,001,2022_Jul_07_1710,2-25_cond_decay_EYE-try,2021.2.3,164.9975568938814,
left,1.0,0.75,1,1,0,1,0,3,0,3,0,0,0,0,8,,,,,,,,,950.0328774400114,None,950.0328774400114,None,950.0328774400114,None,10s,956.1431300110125,957.1431193920143,957.1310386609985,None,958.130967664998,966.8036748860031,958.130967664998,966.8036748860031,966.8036748860031,None,966.8036748860031,None,space,0.31780079097370617,966.8036748860031,None,8.671,967.2582048110198,None,,,,,,,DEC010,001,2022_Jul_07_1710,2-25_cond_decay_EYE-try,2021.2.3,164.9975568938814,
right,1.0,0.75,0,1,0,1,0,3,0,3,0,0,1,1,7,,,,,,,,,,,,,,,10s,968.3174943870108,969.3187314470124,969.3066663700156,None,970.3067163570086,979.6459421860054,970.3067163570086,979.6459421860054,979.6385941220215,None,979.6385941220215,None,space,0.4029316950181965,979.6385941220215,None,9.3287,980.1792590380064,None,,,,,,,DEC010,001,2022_Jul_07_1710,2-25_cond_decay_EYE-try,2021.2.3,164.9975568938814,
right,1.0,0.75,0,1,0,1,0,3,0,3,0,0,2,2,5,,,,,,,,,,,,,,,10s,981.2337221580092,982.233728902007,982.2277525050158,None,983.2277761560108,990.5488235170196,983.2277761560108,990.5488235170196,990.5414306909952,None,990.5414306909952,None,space,0.40398039799765684,990.5414306909952,None,7.3131,991.0821535169962,None,,,,,,,DEC010,001,2022_Jul_07_1710,2-25_cond_decay_EYE-try,2021.2.3,164.9975568938814,
left,0.75,1.0,0,1,0,1,0,3,0,3,0,0,3,3,4,,,,,,,,,,,,,,,10s,992.1366557610163,993.1366963729961,993.1306186830043,None,994.1305932289979,996.8335466340068,994.1305932289979,996.8335466340068,996.8262454050127,None,996.8262454050127,None,space,0.3192661890061572,996.8262454050127,None,2.696,997.2821074530075,None,,,,,,,DEC010,001,2022_Jul_07_1710,2-25_cond_decay_EYE-try,2021.2.3,164.9975568938814,
left,0.75,1.0,0,1,0,1,0,3,0,3,0,0,4,4,0,,,,,,,,,,,,,,,10s,998.3366440859972,999.3365985930141,999.3305272200087,None,1000.3304652929946,1003.2455909679993,1000.3304652929946,1003.2455909679993,1003.2455909679993,None,1003.2455909679993,None,space,0.4758163289807271,1003.2455909679993,None,2.9127,1003.851693959994,None,,,,,,,DEC010,001,2022_Jul_07_1710,2-25_cond_decay_EYE-try,2021.2.3,164.9975568938814,
left,0.75,1.0,0,1,0,1,0,3,0,3,0,0,5,5,3,,,,,,,,,,,,,,,10s,1004.9123092140071,1005.9123102960002,1005.9061580050038,1014.0031100769993,1006.9062316190102,1013.0151804210036,1006.9062316190102,1013.0151804210036,1013.0078055699996,None,1013.0078055699996,None,None,,1013.0078055699996,None,6.0979,1014.1364182649995,None,,,,,,,DEC010,001,2022_Jul_07_1710,2-25_cond_decay_EYE-try,2021.2.3,164.9975568938814,
left,1.0,0.75,1,1,0,1,0,3,0,3,0,0,6,6,6,,,,,,,,,,,,,,,10s,1015.1848275490047,1016.1848850249953,1016.1787710240169,None,1017.1787558810029,1024.3241355119972,1017.1787558810029,1024.3241355119972,1024.3241355119972,None,1024.3241355119972,None,None,,1024.3241355119972,None,7.1447,1025.4453799760086,None,,,,,,,DEC010,001,2022_Jul_07_1710,2-25_cond_decay_EYE-try,2021.2.3,164.9975568938814,
left,0.75,1.0,0,1,0,1,0,3,0,3,0,0,7,7,2,,,,,,,,,,,,,,,10s,1026.4999550979992,1027.4998349020025,1027.4937629020133,None,1028.4937590740155,1034.420960337011,1028.4937590740155,1034.420960337011,1034.4136654089962,None,1034.4136654089962,None,space,0.35575531399808824,1034.4136654089962,None,5.9166,1034.9058562680148,None,,,,,,,DEC010,001,2022_Jul_07_1710,2-25_cond_decay_EYE-try,2021.2.3,164.9975568938814,
right,1.0,0.75,0,1,0,1,0,3,0,3,0,0,8,8,1,,,,,,,,,,,,,,,10s,1035.9591022020031,1036.9603297540161,1036.9482615890156,None,1037.9482503030158,1040.1300616770168,1037.9482503030158,1040.1300616770168,1040.1300616770168,None,1040.1300616770168,None,space,0.5194350380043034,1040.1300616770168,None,2.1796,1040.7785150330164,None,,,,,,,DEC010,001,2022_Jul_07_1710,2-25_cond_decay_EYE-try,2021.2.3,164.9975568938814,
right,0.75,1.0,1,1,0,1,0,3,0,3,0,0,9,9,9,,,,,,,,,,,,,,,10s,1041.833059511002,1042.832995675999,1042.8209008889971,None,1043.8208420280134,1048.8148009050055,1043.8208420280134,1048.8148009050055,1048.8148009050055,None,1048.8148009050055,None,space,0.4266823609941639,1048.8148009050055,None,4.9909,1049.3784162150114,None,,,,,,,DEC010,001,2022_Jul_07_1710,2-25_cond_decay_EYE-try,2021.2.3,164.9975568938814,
right,1.0,0.75,0,1,0,1,0,3,0,3,0,1,0,10,8,,,,,,,,,,,,,,,10s,1050.426851540018,1051.4268196110206,1051.4207366030023,None,1052.4207371649973,1056.2085675050039,1052.4207371649973,1056.2085675050039,1056.2085675050039,None,1056.2085675050039,None,space,0.3368503889942076,1056.2085675050039,None,3.7862,1056.675327792007,None,,,,,,,DEC010,001,2022_Jul_07_1710,2-25_cond_decay_EYE-try,2021.2.3,164.9975568938814,
right,1.0,0.75,0,1,0,1,0,3,0,3,0,1,1,11,1,,,,,,,,,,,,,,,10s,1057.729769201018,1058.7298218710057,1058.7176260660053,None,1059.7176418600138,1069.1599467460182,1059.7176418600138,1069.1599467460182,1069.1599467460182,None,1069.1599467460182,None,space,0.2815158299927134,1069.1599467460182,None,9.4398,1069.5781742779945,None,,,,,,,DEC010,001,2022_Jul_07_1710,2-25_cond_decay_EYE-try,2021.2.3,164.9975568938814,
left,0.75,1.0,0,1,0,1,0,3,0,3,0,1,2,12,4,,,,,,,,,,,,,,,10s,1070.6327224110137,1071.632631910994,1071.6204776040104,None,1072.620487852022,1078.2386112330132,1072.620487852022,1078.2386112330132,1078.2313853170199,None,1078.2313853170199,None,None,,1078.2313853170199,None,5.6079,1079.3598736110143,None,,,,,,,DEC010,001,2022_Jul_07_1710,2-25_cond_decay_EYE-try,2021.2.3,164.9975568938814,
left,0.75,1.0,0,1,0,1,0,3,0,3,0,1,3,13,2,,,,,,,,,,,,,,,10s,1080.4083205469942,1081.4082836089947,1081.4022900850105,None,1082.4022036120004,1085.6991317089996,1082.4022036120004,1085.6991317089996,1085.6991317089996,None,1085.6991317089996,None,space,0.45429609800339676,1085.6991317089996,None,3.2951,1086.2870626109943,None,,,,,,,DEC010,001,2022_Jul_07_1710,2-25_cond_decay_EYE-try,2021.2.3,164.9975568938814,
right,0.75,1.0,1,1,0,1,0,3,0,3,0,1,4,14,9,,,,,,,,,,,,,,,10s,1087.340231928014,1088.3415866970026,1088.3294710990158,None,1089.3294334200036,1094.4505950630119,1089.3294334200036,1094.4505950630119,1094.4505950630119,None,1094.4505950630119,None,space,0.39882817899342626,1094.4505950630119,None,5.1181,1094.9826303390146,None,,,,,,,DEC010,001,2022_Jul_07_1710,2-25_cond_decay_EYE-try,2021.2.3,164.9975568938814,
right,1.0,0.75,0,1,0,1,0,3,0,3,0,1,5,15,7,,,,,,,,,,,,,,,10s,1096.0323982450063,1097.0323781339976,1097.026320961013,None,1098.0263436470123,1098.32932785101,1098.0263436470123,1098.32932785101,1098.32932785101,None,1098.32932785101,None,space,0.6320970730157569,1098.32932785101,None,0.3024,1099.0990223660192,None,,,,,,,DEC010,001,2022_Jul_07_1710,2-25_cond_decay_EYE-try,2021.2.3,164.9975568938814,
left,1.0,0.75,1,1,0,1,0,3,0,3,0,1,6,16,6,,,,,,,,,,,,,,,10s,1100.1595679270104,1101.1596234480094,1101.147489244002,None,1102.1475075640192,1102.6383546070138,1102.1475075640192,1102.6383546070138,1102.6383546070138,None,1102.6383546070138,None,space,0.37105723400600255,1102.6383546070138,None,0.4887,1103.1474629199947,None,,,,,,,DEC010,001,2022_Jul_07_1710,2-25_cond_decay_EYE-try,2021.2.3,164.9975568938814,
left,0.75,1.0,0,1,0,1,0,3,0,3,0,1,7,17,3,,,,,,,,,,,,,,,10s,1104.2006488110055,1105.2019154650043,1105.189864134998,None,1106.1898645230103,1109.9716091820155,1106.1898645230103,1109.9716091820155,1109.9716091820155,None,1109.9716091820155,None,space,0.3578103840118274,1109.9716091820155,None,3.7809,1110.4685882870108,None,,,,,,,DEC010,001,2022_Jul_07_1710,2-25_cond_decay_EYE-try,2021.2.3,164.9975568938814,
right,1.0,0.75,0,1,0,1,0,3,0,3,0,1,8,18,5,,,,,,,,,,,,,,,10s,1111.5231107250147,1112.5231018680206,1112.5109683400078,None,1113.5108999740041,1119.8684691780072,1113.5108999740041,1119.8684691780072,1119.8684691780072,None,1119.8684691780072,None,space,0.3730187219916843,1119.8684691780072,None,6.3567,1120.3714945010142,None,,,,,,,DEC010,001,2022_Jul_07_1710,2-25_cond_decay_EYE-try,2021.2.3,164.9975568938814,
left,0.75,1.0,0,1,0,1,0,3,0,3,0,1,9,19,0,,,,,,,,,,,,,,,10s,1121.4320902680047,1122.432070668001,1122.4198975689942,None,1123.4199139600096,1128.6501799480175,1123.4199139600096,1128.6501799480175,1128.6501799480175,None,1128.6501799480175,None,space,0.7033102219866123,1128.6501799480175,None,5.2268,1129.4925923560222,None,,,,,,,DEC010,001,2022_Jul_07_1710,2-25_cond_decay_EYE-try,2021.2.3,164.9975568938814,
,,,,1,0,1,0,3,0,3,0,,,,,,,,,,,,,,,,,,,,,,,,,,,,,,,,,,,,,,,,,,,,,DEC010,001,2022_Jul_07_1710,2-25_cond_decay_EYE-try,2021.2.3,164.9975568938814,
,,,,1,0,1,0,,,,,,,,,,,,,,,,,,,,,,,,,,,,,,,,,,,,,,,,,,,1130.3882579769997,None,1130.3882579769997,None,1130.3882579769997,None,DEC010,001,2022_Jul_07_1710,2-25_cond_decay_EYE-try,2021.2.3,164.9975568938814,
left,0.75,1.0,0,2,0,2,0,0,0,0,0,0,0,0,2,,,,,,,,,1135.383436388016,None,1135.383436388016,None,1135.383436388016,None,10s,1137.8621210349957,1138.862183307996,1138.8500644600135,None,1139.8500455199974,1140.1773067670001,1139.8500455199974,1140.1773067670001,1140.1773067670001,None,1140.1773067670001,None,space,0.44017028898815624,1140.1773067670001,None,0.3274,1140.7517723240016,None,,,,,,,DEC010,001,2022_Jul_07_1710,2-25_cond_decay_EYE-try,2021.2.3,164.9975568938814,
left,0.75,1.0,0,2,0,2,0,0,0,0,0,0,1,1,0,,,,,,,,,,,,,,,10s,1141.801550514996,1142.8015816230036,1142.7955371029966,None,1143.795489444019,1149.7105195090116,1143.795489444019,1149.7105195090116,1149.7031106009963,None,1149.7031106009963,None,space,0.42630798800382763,1149.7031106009963,None,5.9039,1150.2680985660118,None,,,,,,,DEC010,001,2022_Jul_07_1710,2-25_cond_decay_EYE-try,2021.2.3,164.9975568938814,
right,1.0,0.75,0,2,0,2,0,0,0,0,0,0,2,2,6,,,,,,,,,,,,,,,10s,1151.327418064,1152.3286979770055,1152.3165039550222,None,1153.3164731520228,1158.8013765939977,1153.3164731520228,1158.8013765939977,1158.7939818089944,None,1158.7939818089944,None,space,0.32747024900163524,1158.7939818089944,None,5.4744,1159.2545711529965,None,,,,,,,DEC010,001,2022_Jul_07_1710,2-25_cond_decay_EYE-try,2021.2.3,164.9975568938814,
right,1.0,0.75,0,2,0,2,0,0,0,0,0,0,3,3,9,,,,,,,,,,,,,,,10s,1160.3042714869953,1161.3042778280214,1161.2983595920086,None,1162.2981869220093,1169.3951938429964,1162.2981869220093,1169.3951938429964,1169.38770953301,None,1169.38770953301,None,space,0.397721567976987,1169.38770953301,None,7.0886,1169.9223502179957,None,,,,,,,DEC010,001,2022_Jul_07_1710,2-25_cond_decay_EYE-try,2021.2.3,164.9975568938814,
left,0.75,1.0,0,2,0,2,0,0,0,0,0,0,4,4,1,,,,,,,,,,,,,,,10s,1170.9816925290215,1171.9829844560008,1171.9707970960008,None,1172.9707894470193,1182.3283254000125,1172.9707894470193,1182.3283254000125,1182.3283254000125,None,1182.3283254000125,None,space,0.3691869680187665,1182.3283254000125,None,9.3559,1182.8299660880002,None,,,,,,,DEC010,001,2022_Jul_07_1710,2-25_cond_decay_EYE-try,2021.2.3,164.9975568938814,
left,0.75,1.0,0,2,0,2,0,0,0,0,0,0,5,5,5,,,,,,,,,,,,,,,10s,1183.8797900320205,1184.879809605016,1184.873675291019,None,1185.8736777949962,1192.6069054660038,1185.8736777949962,1192.6069054660038,1192.6069054660038,None,1192.6069054660038,None,space,0.3705980929953512,1192.6069054660038,None,6.7333,1193.1160609320214,None,,,,,,,DEC010,001,2022_Jul_07_1710,2-25_cond_decay_EYE-try,2021.2.3,164.9975568938814,
left,0.75,1.0,0,2,0,2,0,0,0,0,0,0,6,6,3,,,,,,,,,,,,,,,10s,1194.170530397998,1195.1705848880229,1195.1645242630038,None,1196.164500829007,1201.7886064640188,1196.164500829007,1201.7886064640188,1201.7886064640188,None,1201.7886064640188,None,None,,1201.7886064640188,None,5.6217,1202.9159469190054,None,,,,,,,DEC010,001,2022_Jul_07_1710,2-25_cond_decay_EYE-try,2021.2.3,164.9975568938814,
left,1.0,0.75,1,2,0,2,0,0,0,0,0,0,7,7,4,,,,,,,,,,,,,,,10s,1203.958302346,1204.9583462850132,1204.9522085990175,None,1205.9522859910212,1210.667379446997,1205.9522859910212,1210.667379446997,1210.6600196820218,None,1210.6600196820218,None,space,0.95747520000441,1210.6600196820218,None,4.7084,1211.7522072069987,None,,,,,,,DEC010,001,2022_Jul_07_1710,2-25_cond_decay_EYE-try,2021.2.3,164.9975568938814,
right,1.0,0.75,0,2,0,2,0,0,0,0,0,0,8,8,7,,,,,,,,,,,,,,,10s,1212.8006088370166,1213.8005894700182,1213.7886128750106,None,1214.7945110890141,1217.3520862770092,1214.7945110890141,1217.3520862770092,1217.3520862770092,None,1217.3520862770092,None,space,0.4254651740193367,1217.3520862770092,None,2.5585,1217.915790329018,None,,,,,,,DEC010,001,2022_Jul_07_1710,2-25_cond_decay_EYE-try,2021.2.3,164.9975568938814,
right,1.0,0.75,0,2,0,2,0,0,0,0,0,0,9,9,8,,,,,,,,,,,,,,,10s,1218.9702928400075,1219.9702844980056,1219.9642072790011,None,1220.964225207019,1228.582247045997,1220.964225207019,1228.582247045997,1228.582247045997,None,1228.582247045997,None,None,,1228.582247045997,None,7.6187,1229.7095564780175,None,,,,,,,DEC010,001,2022_Jul_07_1710,2-25_cond_decay_EYE-try,2021.2.3,164.9975568938814,
right,1.0,0.75,0,2,0,2,0,0,0,0,0,1,0,10,9,,,,,,,,,,,,,,,10s,1230.7580304139992,1231.758013047016,1231.7518741569947,None,1232.751877089002,1238.0003652200103,1232.751877089002,1238.0003652200103,1238.0003652200103,None,1238.0003652200103,None,space,0.47307994999573566,1238.0003652200103,None,5.2468,1238.6185485419992,None,,,,,,,DEC010,001,2022_Jul_07_1710,2-25_cond_decay_EYE-try,2021.2.3,164.9975568938814,
right,1.0,0.75,0,2,0,2,0,0,0,0,0,1,1,11,7,,,,,,,,,,,,,,,10s,1239.6609531379945,1240.660932562023,1240.6548102649976,None,1241.6547998720198,1244.933634147019,1241.6547998720198,1244.933634147019,1244.933634147019,None,1244.933634147019,None,space,0.4438422259991057,1244.933634147019,None,3.2779,1245.5154276140092,None,,,,,,,DEC010,001,2022_Jul_07_1710,2-25_cond_decay_EYE-try,2021.2.3,164.9975568938814,
left,1.0,0.75,1,2,0,2,0,0,0,0,0,1,2,12,4,,,,,,,,,,,,,,,10s,1246.5760253290064,1247.5760208050197,1247.5638303900196,None,1248.5638756609987,1249.1699357500183,1248.5638756609987,1249.1699357500183,1249.1699357500183,None,1249.1699357500183,None,space,0.3514982149936259,1249.1699357500183,None,0.6059,1249.6487121400132,None,,,,,,,DEC010,001,2022_Jul_07_1710,2-25_cond_decay_EYE-try,2021.2.3,164.9975568938814,
left,0.75,1.0,0,2,0,2,0,0,0,0,0,1,3,13,0,,,,,,,,,,,,,,,10s,1250.6971612260095,1251.697188132006,1251.691167483019,None,1252.6911460190022,1253.9638174739957,1252.6911460190022,1253.9638174739957,1253.9638174739957,None,1253.9638174739957,None,None,,1253.9638174739957,None,1.2721,1255.09106509501,None,,,,,,,DEC010,001,2022_Jul_07_1710,2-25_cond_decay_EYE-try,2021.2.3,164.9975568938814,
left,0.75,1.0,0,2,0,2,0,0,0,0,0,1,4,14,1,,,,,,,,,,,,,,,10s,1256.1394793759973,1257.139534514019,1257.1334660020075,None,1258.1334001530195,1261.145542829996,1258.1334001530195,1261.145542829996,1261.145542829996,None,1261.145542829996,None,space,0.5119605409854557,1261.145542829996,None,3.0126,1261.8000808460056,None,,,,,,,DEC010,001,2022_Jul_07_1710,2-25_cond_decay_EYE-try,2021.2.3,164.9975568938814,
left,0.75,1.0,0,2,0,2,0,0,0,0,0,1,5,15,3,,,,,,,,,,,,,,,10s,1262.8484908110113,1263.8485427380074,1263.842426963005,None,1264.842450346012,1269.696931139013,1264.842450346012,1269.696931139013,1269.696931139013,None,1269.696931139013,None,space,0.2885846789868083,1269.696931139013,None,4.8542,1270.1151241640036,None,,,,,,,DEC010,001,2022_Jul_07_1710,2-25_cond_decay_EYE-try,2021.2.3,164.9975568938814,
right,1.0,0.75,0,2,0,2,0,0,0,0,0,1,6,16,8,,,,,,,,,,,,,,,10s,1271.1744171540195,1272.175660050998,1272.1635898390086,None,1273.1635786789993,1279.0058689620055,1273.1635786789993,1279.0058689620055,1279.0058689620055,None,1279.0058689620055,None,None,,1279.0058689620055,None,5.8428,1280.1331905270054,None,,,,,,,DEC010,001,2022_Jul_07_1710,2-25_cond_decay_EYE-try,2021.2.3,164.9975568938814,
left,0.75,1.0,0,2,0,2,0,0,0,0,0,1,7,17,5,,,,,,,,,,,,,,,10s,1281.1876506970148,1282.1877576670086,1282.1756021140027,None,1283.175581524003,1287.7936424750078,1283.175581524003,1287.7936424750078,1287.7936424750078,None,1287.7936424750078,None,space,0.4638651850109454,1287.7936424750078,None,4.6163,1288.3936889500183,None,,,,,,,DEC010,001,2022_Jul_07_1710,2-25_cond_decay_EYE-try,2021.2.3,164.9975568938814,
right,0.75,1.0,1,2,0,2,0,0,0,0,0,1,8,18,2,,,,,,,,,,,,,,,10s,1289.4421127260139,1290.4421586550015,1290.430032518023,None,1291.4300152320066,1297.7390323780128,1291.4300152320066,1297.7390323780128,1297.7390323780128,None,1297.7390323780128,None,None,,1297.7390323780128,None,6.3049,1298.866249697021,None,,,,,,,DEC010,001,2022_Jul_07_1710,2-25_cond_decay_EYE-try,2021.2.3,164.9975568938814,
right,1.0,0.75,0,2,0,2,0,0,0,0,0,1,9,19,6,,,,,,,,,,,,,,,10s,1299.9147867730062,1300.914738958003,1300.9086208520166,None,1301.908604087017,1303.060171582998,1301.908604087017,1303.060171582998,1303.0527744739957,None,1303.0527744739957,None,None,,1303.0527744739957,None,1.1418,1304.1753204319975,None,,,,,,,DEC010,001,2022_Jul_07_1710,2-25_cond_decay_EYE-try,2021.2.3,164.9975568938814,
,,,,2,0,2,0,0,0,0,0,,,,,,,,,,,,,,,,,,,,,,,,,,,,,,,,,,,,,,,,,,,,,DEC010,001,2022_Jul_07_1710,2-25_cond_decay_EYE-try,2021.2.3,164.9975568938814,
left,1.0,0.75,1,2,0,2,0,1,0,1,0,0,0,0,8,,,,,,,,,1305.070985216007,None,1305.070985216007,None,1305.070985216007,None,1s,1320.2950312280154,1321.2962699700147,1321.2841469160048,None,1322.284118970012,1323.2477685420017,1322.284118970012,1323.2477685420017,1323.2477685420017,None,1323.2477685420017,None,space,0.27367275100550614,1323.2477685420017,None,0.964,1323.6659933479968,None,,,,,,,DEC010,001,2022_Jul_07_1710,2-25_cond_decay_EYE-try,2021.2.3,164.9975568938814,
right,1.0,0.75,0,2,0,2,0,1,0,1,0,0,1,1,2,,,,,,,,,,,,,,,1s,1324.7144894840021,1325.7143583419966,1325.7083203470102,None,1326.7083232720033,1327.6962424230005,1326.7083232720033,1327.6962424230005,1327.688892177015,None,1327.688892177015,None,space,0.3045797630038578,1327.688892177015,None,0.9783,1328.1252425560087,None,,,,,,,DEC010,001,2022_Jul_07_1710,2-25_cond_decay_EYE-try,2021.2.3,164.9975568938814,
right,0.75,1.0,1,2,0,2,0,1,0,1,0,0,2,2,6,,,,,,,,,,,,,,,1s,1329.174961073004,1330.1750036290032,1330.1689506400144,None,1331.1689226170129,1331.3264518259966,1331.1689226170129,1331.3264518259966,1331.3264518259966,None,1331.3264518259966,None,space,0.507059076015139,1331.3264518259966,None,0.1583,1331.9628755640006,None,,,,,,,DEC010,001,2022_Jul_07_1710,2-25_cond_decay_EYE-try,2021.2.3,164.9975568938814,
left,0.75,1.0,0,2,0,2,0,1,0,1,0,0,3,3,4,,,,,,,,,,,,,,,1s,1333.0222003679955,1334.0233782180003,1334.0112557510147,None,1335.0113143060007,1335.5749389690172,1335.0113143060007,1335.5749389690172,1335.5675147850125,None,1335.5675147850125,None,space,0.3539395360276103,1335.5675147850125,None,0.5525,1336.0597800610121,None,,,,,,,DEC010,001,2022_Jul_07_1710,2-25_cond_decay_EYE-try,2021.2.3,164.9975568938814,
left,1.0,0.75,1,2,0,2,0,1,0,1,0,0,4,4,3,,,,,,,,,,,,,,,1s,1337.1142662380007,1338.1142473680084,1338.1082314609957,None,1339.1082646060095,1339.9324565020215,1339.1082646060095,1339.9324565020215,1339.9324565020215,None,1339.9324565020215,None,space,0.2850000979960896,1339.9324565020215,None,0.8248,1340.3566911210073,None,,,,,,,DEC010,001,2022_Jul_07_1710,2-25_cond_decay_EYE-try,2021.2.3,164.9975568938814,
right,1.0,0.75,0,2,0,2,0,1,0,1,0,0,5,5,9,,,,,,,,,,,,,,,1s,1341.4112436390133,1342.4112258859968,1342.4050981090113,None,1343.405090913002,1344.1323581290198,1343.405090913002,1344.1323581290198,1344.1323581290198,None,1344.1323581290198,None,space,0.5170884609979112,1344.1323581290198,None,0.7275,1344.7869592980132,None,,,,,,,DEC010,001,2022_Jul_07_1710,2-25_cond_decay_EYE-try,2021.2.3,164.9975568938814,
right,1.0,0.75,0,2,0,2,0,1,0,1,0,0,6,6,7,,,,,,,,,,,,,,,1s,1345.8414132040052,1346.8414742890163,1346.829297107004,None,1347.8293609390093,1348.229331317998,1347.8293609390093,1348.229331317998,1348.229331317998,None,1348.229331317998,None,space,0.4761275500059128,1348.229331317998,None,0.3952,1348.8353834839945,None,,,,,,,DEC010,001,2022_Jul_07_1710,2-25_cond_decay_EYE-try,2021.2.3,164.9975568938814,
left,0.75,1.0,0,2,0,2,0,1,0,1,0,0,7,7,5,,,,,,,,,,,,,,,1s,1349.889858901006,1350.889841575001,1350.8778505189985,None,1351.8778354060196,1352.2049937710108,1351.8778354060196,1352.2049937710108,1352.2049937710108,None,1352.2049937710108,None,None,,1352.2049937710108,None,0.3238,1353.3323005050188,None,,,,,,,DEC010,001,2022_Jul_07_1710,2-25_cond_decay_EYE-try,2021.2.3,164.9975568938814,
left,0.75,1.0,0,2,0,2,0,1,0,1,0,0,8,8,1,,,,,,,,,,,,,,,1s,1354.3807038320228,1355.3806914610032,1355.3747069310048,None,1356.374625726021,1357.2413407390122,1356.374625726021,1357.2413407390122,1357.2338951380225,None,1357.2338951380225,None,space,0.31164528598310426,1357.2338951380225,None,0.857,1357.689818209008,None,,,,,,,DEC010,001,2022_Jul_07_1710,2-25_cond_decay_EYE-try,2021.2.3,164.9975568938814,
right,1.0,0.75,0,2,0,2,0,1,0,1,0,0,9,9,0,,,,,,,,,,,,,,,1s,1358.743051499012,1359.7443497370114,1359.732232866023,None,1360.7322155130096,1361.1927798539982,1360.7322155130096,1361.1927798539982,1361.1854543370137,None,1361.1854543370137,None,space,0.45604795101098716,1361.1854543370137,None,0.451,1361.7806840600097,None,,,,,,,DEC010,001,2022_Jul_07_1710,2-25_cond_decay_EYE-try,2021.2.3,164.9975568938814,
right,1.0,0.75,0,2,0,2,0,1,0,1,0,1,0,10,7,,,,,,,,,,,,,,,1s,1362.839947911998,1363.8412746810063,1363.8290835790103,None,1364.8291329079948,1365.6896710550063,1364.8291329079948,1365.6896710550063,1365.6896710550063,None,1365.6896710550063,None,space,0.26392838900210336,1365.6896710550063,None,0.8582,1366.1200186260103,None,,,,,,,DEC010,001,2022_Jul_07_1710,2-25_cond_decay_EYE-try,2021.2.3,164.9975568938814,
right,1.0,0.75,0,2,0,2,0,1,0,1,0,1,1,11,2,,,,,,,,,,,,,,,1s,1367.1685034740076,1368.1684265240037,1368.1624417809944,None,1369.1624117860047,1369.8290716530173,1369.1624117860047,1369.8290716530173,1369.8290716530173,None,1369.8290716530173,None,space,0.3163793080020696,1369.8290716530173,None,0.6673,1370.2836084980227,None,,,,,,,DEC010,001,2022_Jul_07_1710,2-25_cond_decay_EYE-try,2021.2.3,164.9975568938814,
left,0.75,1.0,0,2,0,2,0,1,0,1,0,1,2,12,1,,,,,,,,,,,,,,,1s,1371.338085573021,1372.3380654170178,1372.332015232998,None,1373.3320612800017,1374.271441518009,1373.3320612800017,1374.271441518009,1374.264003695018,None,1374.264003695018,None,space,0.37749146501300856,1374.264003695018,None,0.9284,1374.7805145930033,None,,,,,,,DEC010,001,2022_Jul_07_1710,2-25_cond_decay_EYE-try,2021.2.3,164.9975568938814,
right,0.75,1.0,1,2,0,2,0,1,0,1,0,1,3,13,6,,,,,,,,,,,,,,,1s,1375.8350517970102,1376.8350439130154,1376.8289832780138,None,1377.8289176940161,1378.228961484012,1377.8289176940161,1378.228961484012,1378.2216496810142,None,1378.2216496810142,None,space,0.37180984899168834,1378.2216496810142,None,0.3927,1378.7319973960111,None,,,,,,,DEC010,001,2022_Jul_07_1710,2-25_cond_decay_EYE-try,2021.2.3,164.9975568938814,
right,1.0,0.75,0,2,0,2,0,1,0,1,0,1,4,14,0,,,,,,,,,,,,,,,1s,1379.7805401679943,1380.7804625540157,1380.774333822017,None,1381.774403087009,1382.1925726509944,1381.774403087009,1382.1925726509944,1382.1925726509944,None,1382.1925726509944,None,space,0.656871446990408,1382.1925726509944,None,0.4161,1382.9864865050185,None,,,,,,,DEC010,001,2022_Jul_07_1710,2-25_cond_decay_EYE-try,2021.2.3,164.9975568938814,
right,1.0,0.75,0,2,0,2,0,1,0,1,0,1,5,15,9,,,,,,,,,,,,,,,1s,1384.0410218290053,1385.0410047589976,1385.0348779820197,None,1386.0348572040093,1386.2591700949997,1386.0348572040093,1386.2591700949997,1386.251812197006,None,1386.251812197006,None,space,0.533692817989504,1386.251812197006,None,0.2143,1386.9137051660218,None,,,,,,,DEC010,001,2022_Jul_07_1710,2-25_cond_decay_EYE-try,2021.2.3,164.9975568938814,
left,1.0,0.75,1,2,0,2,0,1,0,1,0,1,6,16,3,,,,,,,,,,,,,,,1s,1387.9743707450107,1388.9742068030173,1388.968300897017,None,1389.968207819009,1390.1741903680086,1389.968207819009,1390.1741903680086,1390.1669399940001,None,1390.1669399940001,None,space,0.5626501830120105,1390.1669399940001,None,0.1956,1390.859132270998,None,,,,,,,DEC010,001,2022_Jul_07_1710,2-25_cond_decay_EYE-try,2021.2.3,164.9975568938814,
left,0.75,1.0,0,2,0,2,0,1,0,1,0,1,7,17,8,,,,,,,,,,,,,,,1s,1391.9136567859969,1392.9136635629984,1392.9014401980094,None,1393.901429916994,1394.8105970960169,1393.901429916994,1394.8105970960169,1394.8105970960169,None,1394.8105970960169,None,space,0.3669339260086417,1394.8105970960169,None,0.9042,1395.307543211995,None,,,,,,,DEC010,001,2022_Jul_07_1710,2-25_cond_decay_EYE-try,2021.2.3,164.9975568938814,
left,0.75,1.0,0,2,0,2,0,1,0,1,0,1,8,18,5,,,,,,,,,,,,,,,1s,1396.3620852309978,1397.3620644340117,1397.3559413850016,None,1398.3559878320084,1399.040766851016,1398.3559878320084,1399.040766851016,1399.0334106140072,None,1399.0334106140072,None,space,0.4320609650167171,1399.0334106140072,None,0.6778,1399.6044537020207,None,,,,,,,DEC010,001,2022_Jul_07_1710,2-25_cond_decay_EYE-try,2021.2.3,164.9975568938814,
left,0.75,1.0,0,2,0,2,0,1,0,1,0,1,9,19,4,,,,,,,,,,,,,,,1s,1400.6636849310016,1401.6650557450193,1401.6529184399988,None,1402.6529181289952,1403.5862408319954,1402.6529181289952,1403.5862408319954,1403.5862408319954,None,1403.5862408319954,None,space,0.5032365369843319,1403.5862408319954,None,0.9316,1404.2286411920213,None,,,,,,,DEC010,001,2022_Jul_07_1710,2-25_cond_decay_EYE-try,2021.2.3,164.9975568938814,
,,,,2,0,2,0,1,0,1,0,,,,,,,,,,,,,,,,,,,,,,,,,,,,,,,,,,,,,,,,,,,,,DEC010,001,2022_Jul_07_1710,2-25_cond_decay_EYE-try,2021.2.3,164.9975568938814,
left,0.75,1.0,0,2,0,2,0,2,0,2,0,0,0,0,3,,,,,,,,,1405.1243070030177,None,1405.1243070030177,None,1405.1243070030177,None,3s,1418.3194008819992,1419.319382178015,1419.3072638279991,None,1420.307206188998,1421.3496545320086,1420.307206188998,1421.3496545320086,1421.3496545320086,None,1421.3496545320086,None,space,0.45181164602399804,1421.3496545320086,None,1.0388,1421.9362187689985,None,,,,,,,DEC010,001,2022_Jul_07_1710,2-25_cond_decay_EYE-try,2021.2.3,164.9975568938814,
right,0.75,1.0,1,2,0,2,0,2,0,2,0,0,1,1,9,,,,,,,,,,,,,,,3s,1422.9859858910204,1423.9860751469969,1423.979984509002,None,1424.9799367969972,1427.5799898200203,1424.9799367969972,1427.5799898200203,1427.5799898200203,None,1427.5799898200203,None,space,0.357486135995714,1427.5799898200203,None,2.5998,1428.0694928370067,None,,,,,,,DEC010,001,2022_Jul_07_1710,2-25_cond_decay_EYE-try,2021.2.3,164.9975568938814,
right,1.0,0.75,0,2,0,2,0,2,0,2,0,0,2,2,5,,,,,,,,,,,,,,,3s,1429.1239694530086,1430.1253063680197,1430.1132064620033,None,1431.1131650960015,1434.0646752320172,1431.1131650960015,1434.0646752320172,1434.0646752320172,None,1434.0646752320172,None,space,0.24879509001038969,1434.0646752320172,None,2.9489,1434.452533091011,None,,,,,,,DEC010,001,2022_Jul_07_1710,2-25_cond_decay_EYE-try,2021.2.3,164.9975568938814,
left,0.75,1.0,0,2,0,2,0,2,0,2,0,0,3,3,1,,,,,,,,,,,,,,,3s,1435.5131167100044,1436.513111822016,1436.5009913720132,None,1437.5009279410006,1440.1797495550127,1437.5009279410006,1440.1797495550127,1440.1797495550127,None,1440.1797495550127,None,space,0.3257847709755879,1440.1797495550127,None,2.6774,1440.63902384002,None,,,,,,,DEC010,001,2022_Jul_07_1710,2-25_cond_decay_EYE-try,2021.2.3,164.9975568938814,
left,1.0,0.75,1,2,0,2,0,2,0,2,0,0,4,4,8,,,,,,,,,,,,,,,3s,1441.6887527960062,1442.6887510429951,1442.6826617850165,None,1443.6828001360118,1444.1978010460152,1443.6828001360118,1444.1978010460152,1444.190448651003,None,1444.190448651003,None,space,0.491088351001963,1444.190448651003,None,0.5071,1444.8099730540125,None,,,,,,,DEC010,001,2022_Jul_07_1710,2-25_cond_decay_EYE-try,2021.2.3,164.9975568938814,
left,0.75,1.0,0,2,0,2,0,2,0,2,0,0,5,5,0,,,,,,,,,,,,,,,3s,1445.8583870879957,1446.8584409989999,1446.8523749629967,None,1447.8523613419966,1450.8037702470028,1447.8523613419966,1450.8037702470028,1450.8037702470028,None,1450.8037702470028,None,space,0.3337874359858688,1450.8037702470028,None,2.9524,1451.2765653300157,None,,,,,,,DEC010,001,2022_Jul_07_1710,2-25_cond_decay_EYE-try,2021.2.3,164.9975568938814,
right,1.0,0.75,0,2,0,2,0,2,0,2,0,0,6,6,6,,,,,,,,,,,,,,,3s,1452.331089943007,1453.3310897900083,1453.3189091120148,None,1454.318952089001,1454.7189441770024,1454.318952089001,1454.7189441770024,1454.7189441770024,None,1454.7189441770024,None,space,0.41852661198936403,1454.7189441770024,None,0.3981,1455.2765153720102,None,,,,,,,DEC010,001,2022_Jul_07_1710,2-25_cond_decay_EYE-try,2021.2.3,164.9975568938814,
left,0.75,1.0,0,2,0,2,0,2,0,2,0,0,7,7,7,,,,,,,,,,,,,,,3s,1456.3358104469953,1457.337025093002,1457.3249134530197,None,1458.3249631540093,1461.3249235090043,1458.3249631540093,1461.3249235090043,1461.3174958570162,None,1461.3174958570162,None,space,0.29997356500825845,1461.3174958570162,None,2.9889,1461.7552278750227,None,,,,,,,DEC010,001,2022_Jul_07_1710,2-25_cond_decay_EYE-try,2021.2.3,164.9975568938814,
right,1.0,0.75,0,2,0,2,0,2,0,2,0,0,8,8,2,,,,,,,,,,,,,,,3s,1462.8157486270065,1463.8158061570139,1463.8036938699952,None,1464.8036677530035,1466.5672208820179,1464.8036677530035,1466.5672208820179,1466.5672208820179,None,1466.5672208820179,None,space,0.2582550510123838,1466.5672208820179,None,1.7604,1466.9599383659952,None,,,,,,,DEC010,001,2022_Jul_07_1710,2-25_cond_decay_EYE-try,2021.2.3,164.9975568938814,
left,0.75,1.0,0,2,0,2,0,2,0,2,0,0,9,9,4,,,,,,,,,,,,,,,3s,1468.015758701018,1469.0157515530009,1469.0096253140073,None,1470.0096666520112,1471.2701797450136,1470.0096666520112,1471.2701797450136,1471.262899442023,None,1471.262899442023,None,space,0.2985997840005439,1471.262899442023,None,1.2512,1471.7005666100013,None,,,,,,,DEC010,001,2022_Jul_07_1710,2-25_cond_decay_EYE-try,2021.2.3,164.9975568938814,
left,0.75,1.0,0,2,0,2,0,2,0,2,0,1,0,10,1,,,,,,,,,,,,,,,3s,1472.7550253210065,1473.755015235016,1473.7490226179943,None,1474.749028856022,1475.215659509995,1474.749028856022,1475.215659509995,1475.2082509100146,None,1475.2082509100146,None,space,0.32922545800101943,1475.2082509100146,None,0.4578,1475.6762635050109,None,,,,,,,DEC010,001,2022_Jul_07_1710,2-25_cond_decay_EYE-try,2021.2.3,164.9975568938814,
right,1.0,0.75,0,2,0,2,0,2,0,2,0,1,1,11,6,,,,,,,,,,,,,,,3s,1476.7355714980222,1477.7368525280035,1477.7247219650017,None,1478.7247068599972,1480.3791982060065,1478.7247068599972,1480.3791982060065,1480.3791982060065,None,1480.3791982060065,None,space,0.3263565280067269,1480.3791982060065,None,1.6536,1480.8337750690116,None,,,,,,,DEC010,001,2022_Jul_07_1710,2-25_cond_decay_EYE-try,2021.2.3,164.9975568938814,
right,1.0,0.75,0,2,0,2,0,2,0,2,0,1,2,12,2,,,,,,,,,,,,,,,3s,1481.8943221360096,1482.8942947740143,1482.8822710970126,None,1483.8822168580082,1485.7791089570092,1483.8822168580082,1485.7791089570092,1485.7791089570092,None,1485.7791089570092,None,space,0.37436385700129904,1485.7791089570092,None,1.8969,1486.2821984710172,None,,,,,,,DEC010,001,2022_Jul_07_1710,2-25_cond_decay_EYE-try,2021.2.3,164.9975568938814,
right,0.75,1.0,1,2,0,2,0,2,0,2,0,1,3,13,9,,,,,,,,,,,,,,,3s,1487.3368024060037,1488.3367343760037,1488.33065850602,None,1489.3306449369993,1489.7911969050183,1489.3306449369993,1489.7911969050183,1489.7911969050183,None,1489.7911969050183,None,space,0.3943061080062762,1489.7911969050183,None,0.4605,1490.324555357016,None,,,,,,,DEC010,001,2022_Jul_07_1710,2-25_cond_decay_EYE-try,2021.2.3,164.9975568938814,
left,1.0,0.75,1,2,0,2,0,2,0,2,0,1,4,14,8,,,,,,,,,,,,,,,3s,1491.3850980059942,1492.3850952690118,1492.3790439270088,None,1493.3791374140128,1493.6033027350204,1493.3791374140128,1493.6033027350204,1493.5958977440023,None,1493.5958977440023,None,None,,1493.5958977440023,None,0.2142,1494.7245306800178,None,,,,,,,DEC010,001,2022_Jul_07_1710,2-25_cond_decay_EYE-try,2021.2.3,164.9975568938814,
left,0.75,1.0,0,2,0,2,0,2,0,2,0,1,5,15,4,,,,,,,,,,,,,,,3s,1495.7730591120198,1496.7730305080186,1496.766920071008,None,1497.7668449729972,1499.4456676090194,1497.7668449729972,1499.4456676090194,1499.4456676090194,None,1499.4456676090194,None,space,0.27587346200016327,1499.4456676090194,None,1.677,1499.857792433002,None,,,,,,,DEC010,001,2022_Jul_07_1710,2-25_cond_decay_EYE-try,2021.2.3,164.9975568938814,
right,1.0,0.75,0,2,0,2,0,2,0,2,0,1,6,16,3,,,,,,,,,,,,,,,3s,1500.9062086449994,1501.9062669069972,1501.8941232340003,None,1502.8940777950047,1505.5546920500055,1502.8940777950047,1505.5546920500055,1505.5546920500055,None,1505.5546920500055,None,space,0.3188533069915138,1505.5546920500055,None,2.6591,1506.0031725680165,None,,,,,,,DEC010,001,2022_Jul_07_1710,2-25_cond_decay_EYE-try,2021.2.3,164.9975568938814,
right,1.0,0.75,0,2,0,2,0,2,0,2,0,1,7,17,5,,,,,,,,,,,,,,,3s,1507.057698020013,1508.0576466440107,1508.051633496012,None,1509.0516318459995,1509.6637461630162,1509.0516318459995,1509.6637461630162,1509.6563720020058,None,1509.6563720020058,None,space,0.5771095879899804,1509.6563720020058,None,0.6035,1510.3606842269946,None,,,,,,,DEC010,001,2022_Jul_07_1710,2-25_cond_decay_EYE-try,2021.2.3,164.9975568938814,
left,0.75,1.0,0,2,0,2,0,2,0,2,0,1,8,18,0,,,,,,,,,,,,,,,3s,1511.4151627120154,1512.415214559005,1512.4091678830155,None,1513.4090760560066,1513.8152012409992,1513.4090760560066,1513.8152012409992,1513.8079022100137,None,1513.8079022100137,None,space,0.3616311020159628,1513.8079022100137,None,0.3996,1514.306114965002,None,,,,,,,DEC010,001,2022_Jul_07_1710,2-25_cond_decay_EYE-try,2021.2.3,164.9975568938814,
left,0.75,1.0,0,2,0,2,0,2,0,2,0,1,9,19,7,,,,,,,,,,,,,,,3s,1515.3605695310107,1516.3605664700153,1516.3544810409949,None,1517.3544686420064,1517.8272803470027,1517.3544686420064,1517.8272803470027,1517.8198460109998,None,1517.8198460109998,None,space,0.333761104993755,1517.8198460109998,None,0.4622,1518.2817992450146,None,,,,,,,DEC010,001,2022_Jul_07_1710,2-25_cond_decay_EYE-try,2021.2.3,164.9975568938814,
,,,,2,0,2,0,2,0,2,0,,,,,,,,,,,,,,,,,,,,,,,,,,,,,,,,,,,,,,,,,,,,,DEC010,001,2022_Jul_07_1710,2-25_cond_decay_EYE-try,2021.2.3,164.9975568938814,
left,0.75,1.0,0,2,0,2,0,3,0,3,0,0,0,0,2,,,,,,,,,1519.1727092160145,None,1519.1727092160145,None,1519.1727092160145,None,5s,1521.487833273015,1522.4877609590185,1522.4817342140013,None,1523.4816730530001,1526.1423186030006,1523.4816730530001,1526.1423186030006,1526.1349691009964,None,1526.1349691009964,None,space,0.3305199070018716,1526.1349691009964,None,2.6534,1526.6029332030157,None,,,,,,,DEC010,001,2022_Jul_07_1710,2-25_cond_decay_EYE-try,2021.2.3,164.9975568938814,
right,1.0,0.75,0,2,0,2,0,3,0,3,0,0,1,1,6,,,,,,,,,,,,,,,5s,1527.6573883280216,1528.6573768570088,1528.6513888110057,None,1529.6513665640086,1530.887673412013,1529.6513665640086,1530.887673412013,1530.8803520720103,None,1530.8803520720103,None,space,0.3371264709858224,1530.8803520720103,None,1.2274,1531.3543707950157,None,,,,,,,DEC010,001,2022_Jul_07_1710,2-25_cond_decay_EYE-try,2021.2.3,164.9975568938814,
left,0.75,1.0,0,2,0,2,0,3,0,3,0,0,2,2,8,,,,,,,,,,,,,,,5s,1532.414900725009,1533.4148925460177,1533.402783885016,None,1534.4027492309979,1534.5786323490029,1534.4027492309979,1534.5786323490029,1534.5786323490029,None,1534.5786323490029,None,space,0.39884326100582257,1534.5786323490029,None,0.1761,1535.1058515869954,None,,,,,,,DEC010,001,2022_Jul_07_1710,2-25_cond_decay_EYE-try,2021.2.3,164.9975568938814,
right,0.75,1.0,1,2,0,2,0,3,0,3,0,0,3,3,4,,,,,,,,,,,,,,,5s,1536.1651700320072,1537.1663693410228,1537.154305672011,None,1538.1542244070151,1542.5421197350079,1538.1542244070151,1542.5421197350079,1542.5421197350079,None,1542.5421197350079,None,space,0.30736179000814445,1542.5421197350079,None,4.3846,1542.9784759090107,None,,,,,,,DEC010,001,2022_Jul_07_1710,2-25_cond_decay_EYE-try,2021.2.3,164.9975568938814,
right,1.0,0.75,0,2,0,2,0,3,0,3,0,0,4,4,3,,,,,,,,,,,,,,,5s,1544.0330012190097,1545.0329184670118,1545.0269513740204,None,1546.0269519950089,1548.5662372359948,1546.0269519950089,1548.5662372359948,1548.5662372359948,None,1548.5662372359948,None,space,0.37124787000357173,1548.5662372359948,None,2.5396,1549.075372685009,None,,,,,,,DEC010,001,2022_Jul_07_1710,2-25_cond_decay_EYE-try,2021.2.3,164.9975568938814,
left,0.75,1.0,0,2,0,2,0,3,0,3,0,0,5,5,7,,,,,,,,,,,,,,,5s,1550.135900437017,1551.1359469820163,1551.1298289020197,None,1552.1298213569971,1553.820781413,1552.1298213569971,1553.820781413,1553.8133916550141,None,1553.8133916550141,None,space,0.3240767310198862,1553.8133916550141,None,1.68,1554.2753044130222,None,,,,,,,DEC010,001,2022_Jul_07_1710,2-25_cond_decay_EYE-try,2021.2.3,164.9975568938814,
left,0.75,1.0,0,2,0,2,0,3,0,3,0,0,6,6,1,,,,,,,,,,,,,,,5s,1555.3298474620096,1556.3298236880219,1556.3237683660118,None,1557.3237644089968,1559.9419133760093,1557.3237644089968,1559.9419133760093,1559.9345004310017,None,1559.9345004310017,None,space,0.29907470001489855,1559.9345004310017,None,2.6107,1560.3722019800043,None,,,,,,,DEC010,001,2022_Jul_07_1710,2-25_cond_decay_EYE-try,2021.2.3,164.9975568938814,
left,1.0,0.75,1,2,0,2,0,3,0,3,0,0,7,7,0,,,,,,,,,,,,,,,5s,1561.4267328440037,1562.426727656013,1562.4207453390118,None,1563.4206004140142,1565.3722479870194,1563.4206004140142,1565.3722479870194,1565.3647298559954,None,1565.3647298559954,None,space,0.4207538519985974,1565.3647298559954,None,1.9421,1565.9236462300178,None,,,,,,,DEC010,001,2022_Jul_07_1710,2-25_cond_decay_EYE-try,2021.2.3,164.9975568938814,
left,0.75,1.0,0,2,0,2,0,3,0,3,0,0,8,8,5,,,,,,,,,,,,,,,5s,1566.9721963370102,1567.9782455179957,1567.9707827469974,None,1568.9659694730071,1569.9054359820148,1568.9659694730071,1569.9054359820148,1569.9054359820148,None,1569.9054359820148,None,space,0.40012251801090315,1569.9054359820148,None,0.9381,1570.4374632270192,None,,,,,,,DEC010,001,2022_Jul_07_1710,2-25_cond_decay_EYE-try,2021.2.3,164.9975568938814,
right,1.0,0.75,0,2,0,2,0,3,0,3,0,0,9,9,9,,,,,,,,,,,,,,,5s,1571.4932155570132,1572.49320789802,1572.4811497280025,None,1573.4811524700199,1578.1598184530158,1573.4811524700199,1578.1598184530158,1578.1598184530158,None,1578.1598184530158,None,space,0.3136623179889284,1578.1598184530158,None,4.6757,1578.6022169810021,None,,,,,,,DEC010,001,2022_Jul_07_1710,2-25_cond_decay_EYE-try,2021.2.3,164.9975568938814,
right,1.0,0.75,0,2,0,2,0,3,0,3,0,1,0,10,9,,,,,,,,,,,,,,,5s,1579.6507601570047,1580.6507468160125,1580.6386270050134,None,1581.6446143510111,1581.9961906640092,1581.6446143510111,1581.9961906640092,1581.9887587310222,None,1581.9887587310222,None,space,0.4527301990019623,1581.9887587310222,None,0.3423,1582.5779978880018,None,,,,,,,DEC010,001,2022_Jul_07_1710,2-25_cond_decay_EYE-try,2021.2.3,164.9975568938814,
right,0.75,1.0,1,2,0,2,0,3,0,3,0,1,1,11,4,,,,,,,,,,,,,,,5s,1583.6325277300202,1584.6324529210106,1584.6264628299978,None,1585.626456040016,1589.0749043370015,1585.626456040016,1589.0749043370015,1589.0749043370015,None,1589.0749043370015,None,space,0.4466477129899431,1589.0749043370015,None,3.445,1589.6506336099992,None,,,,,,,DEC010,001,2022_Jul_07_1710,2-25_cond_decay_EYE-try,2021.2.3,164.9975568938814,
right,1.0,0.75,0,2,0,2,0,3,0,3,0,1,2,12,2,,,,,,,,,,,,,,,5s,1590.6991043580056,1591.6991066189948,1591.686916888022,None,1592.6869202270173,1594.050595787994,1592.6869202270173,1594.050595787994,1594.050595787994,None,1594.050595787994,None,space,0.382883498998126,1594.050595787994,None,1.3633,1594.5717864620092,None,,,,,,,DEC010,001,2022_Jul_07_1710,2-25_cond_decay_EYE-try,2021.2.3,164.9975568938814,
left,0.75,1.0,0,2,0,2,0,3,0,3,0,1,3,13,8,,,,,,,,,,,,,,,5s,1595.6323834040086,1596.6323142580222,1596.620247954008,None,1597.6202538600191,1598.7293159569963,1597.6202538600191,1598.7293159569963,1598.7293159569963,None,1598.7293159569963,None,space,0.3521723409940023,1598.7293159569963,None,1.1088,1599.2202227789967,None,,,,,,,DEC010,001,2022_Jul_07_1710,2-25_cond_decay_EYE-try,2021.2.3,164.9975568938814,
left,1.0,0.75,1,2,0,2,0,3,0,3,0,1,4,14,0,,,,,,,,,,,,,,,5s,1600.274725943018,1601.2746713020024,1601.2686302280053,None,1602.2686854380008,1606.4200754369958,1602.2686854380008,1606.4200754369958,1606.4200754369958,None,1606.4200754369958,None,space,0.34948295599315315,1606.4200754369958,None,4.1476,1606.8989193949965,None,,,,,,,DEC010,001,2022_Jul_07_1710,2-25_cond_decay_EYE-try,2021.2.3,164.9975568938814,
left,0.75,1.0,0,2,0,2,0,3,0,3,0,1,5,15,1,,,,,,,,,,,,,,,5s,1607.9534489030193,1608.953432445007,1608.9473063909973,None,1609.9473635379982,1612.2685400150076,1609.9473635379982,1612.2685400150076,1612.2685400150076,None,1612.2685400150076,None,space,0.629032405995531,1612.2685400150076,None,2.3209,1613.026084784011,None,,,,,,,DEC010,001,2022_Jul_07_1710,2-25_cond_decay_EYE-try,2021.2.3,164.9975568938814,
left,0.75,1.0,0,2,0,2,0,3,0,3,0,1,6,16,5,,,,,,,,,,,,,,,5s,1614.0854259640037,1615.0866945750022,1615.0746530100005,None,1616.074504549004,1619.9957343290152,1616.074504549004,1619.9957343290152,1619.9957343290152,None,1619.9957343290152,None,space,0.6059069449838717,1619.9957343290152,None,3.9214,1620.7338158920174,None,,,,,,,DEC010,001,2022_Jul_07_1710,2-25_cond_decay_EYE-try,2021.2.3,164.9975568938814,
left,0.75,1.0,0,2,0,2,0,3,0,3,0,1,7,17,7,,,,,,,,,,,,,,,5s,1621.7835868410184,1622.783502100996,1622.7713714410202,None,1623.7713631140068,1624.1774417950073,1623.7713631140068,1624.1774417950073,1624.1774417950073,None,1624.1774417950073,None,None,,1624.1774417950073,None,0.4065,1625.3047518940002,None,,,,,,,DEC010,001,2022_Jul_07_1710,2-25_cond_decay_EYE-try,2021.2.3,164.9975568938814,
