attn_cue,left_ob,right_ob,congruent,runs.thisRepN,runs.thisTrialN,runs.thisN,runs.thisIndex,blocks.thisRepN,blocks.thisTrialN,blocks.thisN,blocks.thisIndex,trials.thisRepN,trials.thisTrialN,trials.thisN,trials.thisIndex,welcome.started,welcome.stopped,text_2.started,text_2.stopped,init_key_resp.keys,init_key_resp.rt,init_key_resp.started,init_key_resp.stopped,text_3.started,text_3.stopped,text_4.started,text_4.stopped,text_5.started,text_5.stopped,block_num,texter.started,texter.stopped,cross.started,cross.stopped,left_star.started,left_star.stopped,right_star.started,right_star.stopped,left_2.started,left_2.stopped,right_2.started,right_2.stopped,key_resp.keys,key_resp.rt,key_resp.started,key_resp.stopped,Rand Tim,text.started,text.stopped,end.started,end.stopped,text_6.started,text_6.stopped,text_7.started,text_7.stopped,participant,session,date,expName,psychopyVersion,frameRate,
,,,,,,,,,,,,,,,,151.7514653741382,None,151.7514653741382,None,space,2.3029259219765663,151.7514653741382,None,,,,,,,,,,,,,,,,,,,,,,,,,,,,,,,,,DEC014,001,2022_Sep_08_1509,2-25_cond_decay_EYE-try,2021.2.3,120.19702185389359,
right,1.0,0.75,0,0,0,0,0,0,0,0,0,0,0,0,6,,,,,,,,,154.0858088573441,None,154.0858088573441,None,154.0858088573441,None,1s,157.40274619217962,158.40271793305874,158.39459564117715,None,159.39487546822056,160.17809715121984,159.39487546822056,160.17809715121984,160.1703148339875,None,160.1703148339875,None,space,0.44410579884424806,160.1703148339875,None,0.7786,160.7523029251024,None,,,,,,,DEC014,001,2022_Sep_08_1509,2-25_cond_decay_EYE-try,2021.2.3,120.19702185389359,
right,1.0,0.75,0,0,0,0,0,0,0,0,0,0,1,1,5,,,,,,,,,,,,,,,1s,162.17722128797323,163.1779972491786,163.1697718729265,None,164.17040824098513,164.9368252409622,164.17040824098513,164.9368252409622,164.9279438923113,None,164.9279438923113,None,space,0.43846745509654284,164.9279438923113,None,0.762,165.48664538608864,None,,,,,,,DEC014,001,2022_Sep_08_1509,2-25_cond_decay_EYE-try,2021.2.3,120.19702185389359,
right,0.75,1.0,1,0,0,0,0,0,0,0,0,0,2,2,7,,,,,,,,,,,,,,,1s,166.92758176615462,167.92772017233074,167.91970995813608,None,168.9198303031735,169.66937940008938,168.9198303031735,169.66937940008938,169.66937940008938,None,169.66937940008938,None,space,0.4250281620770693,169.66937940008938,None,0.7501,170.2186514530331,None,,,,,,,DEC014,001,2022_Sep_08_1509,2-25_cond_decay_EYE-try,2021.2.3,120.19702185389359,
right,1.0,0.75,0,0,0,0,0,0,0,0,0,0,3,3,8,,,,,,,,,,,,,,,1s,171.65158149925992,172.6530432589352,172.64497820520774,None,173.6451881439425,174.02820403221995,173.6451881439425,174.02820403221995,174.0201720232144,175.0199913913384,174.0201720232144,175.0199913913384,None,,174.0201720232144,175.0199913913384,0.3775,175.15259669721127,None,,,,,,,DEC014,001,2022_Sep_08_1509,2-25_cond_decay_EYE-try,2021.2.3,120.19702185389359,
left,0.75,1.0,0,0,0,0,0,0,0,0,0,0,4,4,1,,,,,,,,,,,,,,,1s,176.57707955595106,177.57824051892385,177.5702431462705,None,178.57007508026436,179.47885718103498,178.57007508026436,179.47885718103498,179.47885718103498,None,179.47885718103498,None,space,0.36754578491672873,179.47885718103498,None,0.909,179.97667609108612,None,,,,,,,DEC014,001,2022_Sep_08_1509,2-25_cond_decay_EYE-try,2021.2.3,120.19702185389359,
right,1.0,0.75,0,0,0,0,0,0,0,0,0,0,5,5,0,,,,,,,,,,,,,,,1s,181.41067274613306,182.41125193424523,182.39486290095374,None,183.39502215525135,184.16959566809237,183.39502215525135,184.16959566809237,184.16959566809237,None,184.16959566809237,None,space,0.45281271869316697,184.16959566809237,None,0.7749,184.74386143730953,None,,,,,,,DEC014,001,2022_Sep_08_1509,2-25_cond_decay_EYE-try,2021.2.3,120.19702185389359,
left,0.75,1.0,0,0,0,0,0,0,0,0,0,0,6,6,2,,,,,,,,,,,,,,,1s,186.19404075434431,187.1948798932135,187.1868248800747,None,188.1871729111299,188.70377806108445,188.1871729111299,188.70377806108445,188.69498411333188,189.69519033515826,188.69498411333188,189.69519033515826,None,,188.69498411333188,189.69519033515826,0.5113,189.81899374816567,None,,,,,,,DEC014,001,2022_Sep_08_1509,2-25_cond_decay_EYE-try,2021.2.3,120.19702185389359,
left,1.0,0.75,1,0,0,0,0,0,0,0,0,0,7,7,9,,,,,,,,,,,,,,,1s,191.25204855389893,192.25343841919675,192.24536761129275,None,193.24559187190607,194.12831794517115,193.24559187190607,194.12831794517115,194.12017098115757,None,194.12017098115757,None,space,0.6702296570874751,194.12017098115757,None,0.8803,194.91895834729075,None,,,,,,,DEC014,001,2022_Sep_08_1509,2-25_cond_decay_EYE-try,2021.2.3,120.19702185389359,
left,0.75,1.0,0,0,0,0,0,0,0,0,0,0,8,8,3,,,,,,,,,,,,,,,1s,196.35211351234466,197.3537321742624,197.34475119505078,None,198.34533250005916,199.14565983228385,198.34533250005916,199.14565983228385,199.14565983228385,None,199.14565983228385,None,None,,199.14565983228385,None,0.7972,200.26113334391266,None,,,,,,,DEC014,001,2022_Sep_08_1509,2-25_cond_decay_EYE-try,2021.2.3,120.19702185389359,
right,1.0,0.75,0,0,0,0,0,0,0,0,0,0,9,9,4,,,,,,,,,,,,,,,1s,201.68623366300017,202.68691601604223,202.6789121972397,None,203.67852252116427,203.94563519814983,203.67852252116427,203.94563519814983,203.93671645317227,None,203.93671645317227,None,space,0.4616969800554216,203.93671645317227,None,0.2617,204.52692179428414,None,,,,,,,DEC014,001,2022_Sep_08_1509,2-25_cond_decay_EYE-try,2021.2.3,120.19702185389359,
right,1.0,0.75,0,0,0,0,0,0,0,0,0,1,0,10,4,,,,,,,,,,,,,,,1s,205.96076032193378,206.96201734011993,206.95402642292902,None,207.95361833134666,208.1539686662145,207.95361833134666,208.1539686662145,208.14527500234544,None,208.14527500234544,None,space,0.5091038239188492,208.14527500234544,None,0.1969,208.77716562105343,None,,,,,,,DEC014,001,2022_Sep_08_1509,2-25_cond_decay_EYE-try,2021.2.3,120.19702185389359,
left,1.0,0.75,1,0,0,0,0,0,0,0,0,1,1,11,9,,,,,,,,,,,,,,,1s,210.2112671281211,211.21252150600776,211.19521644618362,None,212.20390256121755,212.76251116022468,212.20390256121755,212.76251116022468,212.7536344123073,None,212.7536344123073,None,space,0.4607731709256768,212.7536344123073,None,0.5569,213.33527352800593,None,,,,,,,DEC014,001,2022_Sep_08_1509,2-25_cond_decay_EYE-try,2021.2.3,120.19702185389359,
left,0.75,1.0,0,0,0,0,0,0,0,0,0,1,2,12,1,,,,,,,,,,,,,,,1s,214.76907097827643,215.77038771519437,215.76227619918063,None,216.76207732316107,217.6284011080861,216.76207732316107,217.6284011080861,217.62026120023802,None,217.62026120023802,None,space,0.3781564082019031,217.62026120023802,None,0.8596,218.1190928160213,None,,,,,,,DEC014,001,2022_Sep_08_1509,2-25_cond_decay_EYE-try,2021.2.3,120.19702185389359,
right,1.0,0.75,0,0,0,0,0,0,0,0,0,1,3,13,5,,,,,,,,,,,,,,,1s,219.56078259414062,220.56196513725445,220.55396083928645,None,221.55383145296946,221.7542437161319,221.55383145296946,221.7542437161319,221.74549417709932,None,221.74549417709932,None,space,0.5328506636433303,221.74549417709932,None,0.1949,222.39596230909228,None,,,,,,,DEC014,001,2022_Sep_08_1509,2-25_cond_decay_EYE-try,2021.2.3,120.19702185389359,
right,1.0,0.75,0,0,0,0,0,0,0,0,0,1,4,14,0,,,,,,,,,,,,,,,1s,223.835777182132,224.83713609119877,224.8291327310726,None,225.8289507171139,225.98756246408448,225.8289507171139,225.98756246408448,225.98756246408448,None,225.98756246408448,None,space,0.7228520549833775,225.98756246408448,None,0.1593,226.8359284242615,None,,,,,,,DEC014,001,2022_Sep_08_1509,2-25_cond_decay_EYE-try,2021.2.3,120.19702185389359,
left,0.75,1.0,0,0,0,0,0,0,0,0,0,1,5,15,6,,,,,,,,,,,,,,,1s,228.27746490901336,229.27900685928762,229.26259977323934,None,230.26244751596823,231.12926826393232,230.26244751596823,231.12926826393232,231.12926826393232,None,231.12926826393232,None,space,0.30913373874500394,231.12926826393232,None,0.8615,231.56061190599576,None,,,,,,,DEC014,001,2022_Sep_08_1509,2-25_cond_decay_EYE-try,2021.2.3,120.19702185389359,
right,1.0,0.75,0,0,0,0,0,0,0,0,0,1,6,16,8,,,,,,,,,,,,,,,1s,233.0026355870068,234.00429650209844,233.99519190425053,None,234.99606723617762,235.53706916235387,234.99606723617762,235.53706916235387,235.5290770321153,None,235.5290770321153,None,space,0.3252805736847222,235.5290770321153,None,0.5356,235.97091856133193,None,,,,,,,DEC014,001,2022_Sep_08_1509,2-25_cond_decay_EYE-try,2021.2.3,120.19702185389359,
right,0.75,1.0,1,0,0,0,0,0,0,0,0,1,7,17,7,,,,,,,,,,,,,,,1s,237.4035862009041,238.40444978605956,238.39532894222066,None,239.39590128418058,240.0535091883503,239.39590128418058,240.0535091883503,240.0535091883503,None,240.0535091883503,None,space,0.368894602637738,240.0535091883503,None,0.653,240.54433811921626,None,,,,,,,DEC014,001,2022_Sep_08_1509,2-25_cond_decay_EYE-try,2021.2.3,120.19702185389359,
left,0.75,1.0,0,0,0,0,0,0,0,0,0,1,8,18,3,,,,,,,,,,,,,,,1s,241.9865833283402,242.98762796726078,242.9786429302767,None,243.98803287604824,244.5377560290508,243.98803287604824,244.5377560290508,244.52103901095688,None,244.52103901095688,None,space,0.3333242340013385,244.52103901095688,None,0.5431,244.97772555612028,None,,,,,,,DEC014,001,2022_Sep_08_1509,2-25_cond_decay_EYE-try,2021.2.3,120.19702185389359,
left,0.75,1.0,0,0,0,0,0,0,0,0,0,1,9,19,2,,,,,,,,,,,,,,,1s,246.4031616570428,247.40376657433808,247.38710371917114,None,248.38762813713402,249.21200777310878,248.38762813713402,249.21200777310878,249.21200777310878,None,249.21200777310878,None,space,0.06639958033338189,249.21200777310878,None,0.8233,249.39535530703142,None,,,,,,,DEC014,001,2022_Sep_08_1509,2-25_cond_decay_EYE-try,2021.2.3,120.19702185389359,
,,,,0,0,0,0,0,0,0,0,,,,,,,,,,,,,,,,,,,,,,,,,,,,,,,,,,,,,,,,,,,,,DEC014,001,2022_Sep_08_1509,2-25_cond_decay_EYE-try,2021.2.3,120.19702185389359,
right,1.0,0.75,0,0,0,0,0,1,0,1,0,0,0,0,6,,,,,,,,,250.30301147606224,None,250.30301147606224,None,250.30301147606224,None,5s,253.31301593920216,254.31206471892074,254.30404116213322,None,255.30374397989362,256.9121894640848,255.30374397989362,256.9121894640848,256.9121894640848,None,256.9121894640848,None,space,0.4142275867052376,256.9121894640848,None,1.6038,257.45292417518795,None,,,,,,,DEC014,001,2022_Sep_08_1509,2-25_cond_decay_EYE-try,2021.2.3,120.19702185389359,
right,1.0,0.75,0,0,0,0,0,1,0,1,0,0,1,1,5,,,,,,,,,,,,,,,5s,258.8864920423366,259.8873203252442,259.87927901092917,None,260.8705364349298,263.2877390841022,260.8705364349298,263.2877390841022,263.2961846110411,None,263.2961846110411,None,space,0.6142355217598379,263.2961846110411,None,2.417,264.0294133950956,None,,,,,,,DEC014,001,2022_Sep_08_1509,2-25_cond_decay_EYE-try,2021.2.3,120.19702185389359,
left,1.0,0.75,1,0,0,0,0,1,0,1,0,0,2,2,9,,,,,,,,,,,,,,,5s,265.4697568989359,266.4713225471787,266.46221633208916,None,267.46244805213064,268.4623607820831,267.46244805213064,268.4623607820831,268.45437185419723,269.4541371623054,268.45437185419723,269.4541371623054,None,,268.45437185419723,269.4541371623054,0.9973,269.57796359900385,None,,,,,,,DEC014,001,2022_Sep_08_1509,2-25_cond_decay_EYE-try,2021.2.3,120.19702185389359,
left,0.75,1.0,0,0,0,0,0,1,0,1,0,0,3,3,2,,,,,,,,,,,,,,,5s,271.0114277289249,272.0131720970385,272.0039878981188,None,273.0040106419474,274.41302324132994,273.0040106419474,274.41302324132994,274.41302324132994,None,274.41302324132994,None,space,0.4013934410177171,274.41302324132994,None,1.4073,274.94464693032205,None,,,,,,,DEC014,001,2022_Sep_08_1509,2-25_cond_decay_EYE-try,2021.2.3,120.19702185389359,
left,0.75,1.0,0,0,0,0,0,1,0,1,0,0,4,4,4,,,,,,,,,,,,,,,5s,276.37774536618963,277.3792320289649,277.37121753115207,None,278.37084462400526,282.02930496726185,278.37084462400526,282.02930496726185,282.02930496726185,None,282.02930496726185,None,None,,282.02930496726185,None,3.6569,283.14501540130004,None,,,,,,,DEC014,001,2022_Sep_08_1509,2-25_cond_decay_EYE-try,2021.2.3,120.19702185389359,
right,1.0,0.75,0,0,0,0,0,1,0,1,0,0,5,5,1,,,,,,,,,,,,,,,5s,284.57124050334096,285.57174097793177,285.5625115041621,None,286.5624010139145,286.996549106203,286.5624010139145,286.996549106203,286.996549106203,None,286.996549106203,None,None,,286.996549106203,None,0.4297,288.1029477152042,None,,,,,,,DEC014,001,2022_Sep_08_1509,2-25_cond_decay_EYE-try,2021.2.3,120.19702185389359,
right,1.0,0.75,0,0,0,0,0,1,0,1,0,0,6,6,8,,,,,,,,,,,,,,,5s,289.53649932611734,290.537609860301,290.529599821195,None,291.52986090630293,292.0549902142957,291.52986090630293,292.0549902142957,292.0549902142957,None,292.0549902142957,None,space,0.8074239110574126,292.0549902142957,None,0.5233,292.98624761309475,None,,,,,,,DEC014,001,2022_Sep_08_1509,2-25_cond_decay_EYE-try,2021.2.3,120.19702185389359,
left,0.75,1.0,0,0,0,0,0,1,0,1,0,0,7,7,3,,,,,,,,,,,,,,,5s,294.42122590495273,295.4212397732772,295.41317772492766,None,296.41254057735205,299.196646254044,296.41254057735205,299.196646254044,299.196646254044,None,299.196646254044,None,space,0.19379000272601843,299.196646254044,None,2.7837,299.51131730899215,None,,,,,,,DEC014,001,2022_Sep_08_1509,2-25_cond_decay_EYE-try,2021.2.3,120.19702185389359,
right,1.0,0.75,0,0,0,0,0,1,0,1,0,0,8,8,0,,,,,,,,,,,,,,,5s,300.9551256513223,301.9545391323045,301.94648306816816,None,302.9464294393547,305.36350089730695,302.9464294393547,305.36350089730695,305.35469209821895,None,305.35469209821895,None,space,0.3717370838858187,305.35469209821895,None,2.4101,305.8467626753263,None,,,,,,,DEC014,001,2022_Sep_08_1509,2-25_cond_decay_EYE-try,2021.2.3,120.19702185389359,
left,0.75,1.0,0,0,0,0,0,1,0,1,0,0,9,9,7,,,,,,,,,,,,,,,5s,307.28728449111804,308.28773103421554,308.2797250659205,None,309.28008069004864,313.3049656143412,309.28008069004864,313.3049656143412,313.2961193951778,None,313.2961193951778,None,space,0.4382969210855663,313.2961193951778,None,4.0248,313.8550254991278,None,,,,,,,DEC014,001,2022_Sep_08_1509,2-25_cond_decay_EYE-try,2021.2.3,120.19702185389359,
left,0.75,1.0,0,0,0,0,0,1,0,1,0,1,0,10,4,,,,,,,,,,,,,,,5s,315.2955291629769,316.29693896789104,316.28788430290297,None,317.2881244220771,318.54696025233716,317.2881244220771,318.54696025233716,318.53820875519887,None,318.53820875519887,None,space,0.4282117933034897,318.53820875519887,None,1.2547,319.087836899329,None,,,,,,,DEC014,001,2022_Sep_08_1509,2-25_cond_decay_EYE-try,2021.2.3,120.19702185389359,
right,1.0,0.75,0,0,0,0,0,1,0,1,0,1,1,11,0,,,,,,,,,,,,,,,5s,320.5283691599034,321.52986653195694,321.5218614372425,None,322.5213743140921,322.94680044194683,322.5213743140921,322.94680044194683,322.93807628704235,323.93864763109013,322.93807628704235,323.93864763109013,None,,322.93807628704235,323.93864763109013,0.4188,324.0616410449147,None,,,,,,,DEC014,001,2022_Sep_08_1509,2-25_cond_decay_EYE-try,2021.2.3,120.19702185389359,
left,0.75,1.0,0,0,0,0,0,1,0,1,0,1,2,12,2,,,,,,,,,,,,,,,5s,325.4953572289087,326.49709578603506,326.48022685106844,None,327.4798202039674,331.0968781011179,327.4798202039674,331.0968781011179,331.1054696473293,None,331.1054696473293,None,space,0.5009559351019561,331.1054696473293,None,3.6181,331.7369228582829,None,,,,,,,DEC014,001,2022_Sep_08_1509,2-25_cond_decay_EYE-try,2021.2.3,120.19702185389359,
left,0.75,1.0,0,0,0,0,0,1,0,1,0,1,3,13,3,,,,,,,,,,,,,,,5s,333.1701151379384,334.1715231812559,334.16339776618406,None,335.1633406812325,338.1054374659434,335.1633406812325,338.1054374659434,338.1054374659434,None,338.1054374659434,None,None,,338.1054374659434,None,2.9399,339.2208027453162,None,,,,,,,DEC014,001,2022_Sep_08_1509,2-25_cond_decay_EYE-try,2021.2.3,120.19702185389359,
right,1.0,0.75,0,0,0,0,0,1,0,1,0,1,4,14,8,,,,,,,,,,,,,,,5s,340.6549435192719,341.654703008011,341.6469383300282,None,342.647161107976,345.08866867795587,342.647161107976,345.08866867795587,345.08866867795587,None,345.08866867795587,None,None,,345.08866867795587,None,2.4368,346.19670299394056,None,,,,,,,DEC014,001,2022_Sep_08_1509,2-25_cond_decay_EYE-try,2021.2.3,120.19702185389359,
right,1.0,0.75,0,0,0,0,0,1,0,1,0,1,5,15,1,,,,,,,,,,,,,,,5s,347.62840942200273,348.63030794495717,348.62141806213185,None,349.6216349620372,350.82209133403376,349.6216349620372,350.82209133403376,350.8132839151658,None,350.8132839151658,None,space,0.449090460781008,350.8132839151658,None,1.1954,351.38688442017883,None,,,,,,,DEC014,001,2022_Sep_08_1509,2-25_cond_decay_EYE-try,2021.2.3,120.19702185389359,
left,1.0,0.75,1,0,0,0,0,1,0,1,0,1,6,16,9,,,,,,,,,,,,,,,5s,352.82085787830874,353.82144258590415,353.80559292109683,None,354.80520738102496,357.96378785325214,354.80520738102496,357.96378785325214,357.96378785325214,None,357.96378785325214,None,space,0.4186383280903101,357.96378785325214,None,3.1588,358.5057009011507,None,,,,,,,DEC014,001,2022_Sep_08_1509,2-25_cond_decay_EYE-try,2021.2.3,120.19702185389359,
right,1.0,0.75,0,0,0,0,0,1,0,1,0,1,7,17,5,,,,,,,,,,,,,,,5s,359.94620697107166,360.94693771516904,360.9388913400471,None,361.9387903162278,362.09669191902503,361.9387903162278,362.09669191902503,362.08886153809726,None,362.08886153809726,None,space,0.5575693459250033,362.08886153809726,None,0.1541,362.7639065561816,None,,,,,,,DEC014,001,2022_Sep_08_1509,2-25_cond_decay_EYE-try,2021.2.3,120.19702185389359,
left,0.75,1.0,0,0,0,0,0,1,0,1,0,1,8,18,7,,,,,,,,,,,,,,,5s,364.2037197519094,365.2056714040227,365.1890293681063,None,366.19749447889626,369.41396863618866,366.19749447889626,369.41396863618866,369.4052902450785,None,369.4052902450785,None,space,0.3211446409113705,369.4052902450785,None,3.2155,369.8539040000178,None,,,,,,,DEC014,001,2022_Sep_08_1509,2-25_cond_decay_EYE-try,2021.2.3,120.19702185389359,
right,0.75,1.0,1,0,0,0,0,1,0,1,0,1,9,19,6,,,,,,,,,,,,,,,5s,371.28734187502414,372.2886659959331,372.2806291603483,None,373.28085086122155,374.0557036702521,373.28085086122155,374.0557036702521,374.0469646039419,375.04671633429825,374.0469646039419,375.04671633429825,None,,374.0469646039419,375.04671633429825,0.7737,375.17120503727347,None,,,,,,,DEC014,001,2022_Sep_08_1509,2-25_cond_decay_EYE-try,2021.2.3,120.19702185389359,
,,,,0,0,0,0,1,0,1,0,,,,,,,,,,,,,,,,,,,,,,,,,,,,,,,,,,,,,,,,,,,,,DEC014,001,2022_Sep_08_1509,2-25_cond_decay_EYE-try,2021.2.3,120.19702185389359,
left,1.0,0.75,1,0,0,0,0,2,0,2,0,0,0,0,8,,,,,,,,,376.0709576299414,None,376.0709576299414,None,376.0709576299414,None,10s,382.11280125705525,383.1140362690203,383.09738434292376,None,384.0968238268979,384.78004075214267,384.0968238268979,384.78004075214267,384.78004075214267,None,384.78004075214267,None,None,,384.78004075214267,None,0.6815,385.8884904300794,None,,,,,,,DEC014,001,2022_Sep_08_1509,2-25_cond_decay_EYE-try,2021.2.3,120.19702185389359,
right,1.0,0.75,0,0,0,0,0,2,0,2,0,0,1,1,1,,,,,,,,,,,,,,,10s,387.32955787796527,388.330789944157,388.32187933893874,None,389.3222019523382,395.27206185506657,389.3222019523382,395.27206185506657,395.27206185506657,None,395.27206185506657,None,space,0.41437580110505223,395.27206185506657,None,5.9487,395.81308329990134,None,,,,,,,DEC014,001,2022_Sep_08_1509,2-25_cond_decay_EYE-try,2021.2.3,120.19702185389359,
right,0.75,1.0,1,0,0,0,0,2,0,2,0,0,2,2,2,,,,,,,,,,,,,,,10s,397.2379504912533,398.23901513405144,398.2310136030428,None,399.2307750233449,399.75532089034095,399.2307750233449,399.75532089034095,399.7474364321679,400.7471523983404,399.7474364321679,400.7471523983404,None,,399.7474364321679,400.7471523983404,0.5225,400.87108755717054,None,,,,,,,DEC014,001,2022_Sep_08_1509,2-25_cond_decay_EYE-try,2021.2.3,120.19702185389359,
right,1.0,0.75,0,0,0,0,0,2,0,2,0,0,3,3,3,,,,,,,,,,,,,,,10s,402.30422519426793,403.30533670494333,403.29726404696703,None,404.29738707933575,404.83937514806166,404.29738707933575,404.83937514806166,404.83937514806166,None,404.83937514806166,None,space,0.6070668930187821,404.83937514806166,None,0.5424,405.5707718990743,None,,,,,,,DEC014,001,2022_Sep_08_1509,2-25_cond_decay_EYE-try,2021.2.3,120.19702185389359,
left,0.75,1.0,0,0,0,0,0,2,0,2,0,0,4,4,5,,,,,,,,,,,,,,,10s,407.0055402261205,408.00566883198917,407.99795295810327,None,408.9974989341572,409.6725568752736,408.9974989341572,409.6725568752736,409.6638260879554,None,409.6638260879554,None,space,0.7026103511452675,409.6638260879554,None,0.6685,410.48754475917667,None,,,,,,,DEC014,001,2022_Sep_08_1509,2-25_cond_decay_EYE-try,2021.2.3,120.19702185389359,
left,0.75,1.0,0,0,0,0,0,2,0,2,0,0,5,5,7,,,,,,,,,,,,,,,10s,411.9294265159406,412.93103099195287,412.92289335420355,None,413.92290846817195,423.3474458940327,413.92290846817195,423.3474458940327,423.33968448033556,424.33930090628564,423.33968448033556,424.33930090628564,None,,423.33968448033556,424.33930090628564,9.4214,424.4635177128948,None,,,,,,,DEC014,001,2022_Sep_08_1509,2-25_cond_decay_EYE-try,2021.2.3,120.19702185389359,
left,0.75,1.0,0,0,0,0,0,2,0,2,0,0,6,6,6,,,,,,,,,,,,,,,10s,425.8961583892815,426.89786542998627,426.8811981389299,None,427.88061265228316,434.0143214999698,427.88061265228316,434.0143214999698,434.0143214999698,None,434.0143214999698,None,space,0.6401209179311991,434.0143214999698,None,6.1272,434.7799142780714,None,,,,,,,DEC014,001,2022_Sep_08_1509,2-25_cond_decay_EYE-try,2021.2.3,120.19702185389359,
left,0.75,1.0,0,0,0,0,0,2,0,2,0,0,7,7,4,,,,,,,,,,,,,,,10s,436.2135230801068,437.2142524411902,437.2060870761052,None,438.20592839224264,441.5063686282374,438.20592839224264,441.5063686282374,441.5063686282374,None,441.5063686282374,None,None,,441.5063686282374,None,3.3006,442.6217276463285,None,,,,,,,DEC014,001,2022_Sep_08_1509,2-25_cond_decay_EYE-try,2021.2.3,120.19702185389359,
left,1.0,0.75,1,0,0,0,0,2,0,2,0,0,8,8,0,,,,,,,,,,,,,,,10s,444.05542391119525,445.0565256793052,445.0396753959358,None,446.0392108228989,447.98160886298865,446.0392108228989,447.98160886298865,447.98160886298865,None,447.98160886298865,None,space,0.7528277169913054,447.98160886298865,None,1.9366,448.86326295603067,None,,,,,,,DEC014,001,2022_Sep_08_1509,2-25_cond_decay_EYE-try,2021.2.3,120.19702185389359,
right,1.0,0.75,0,0,0,0,0,2,0,2,0,0,9,9,9,,,,,,,,,,,,,,,10s,450.3053522161208,451.305860276334,451.2978467489593,None,452.2975200130604,456.54756083898246,452.2975200130604,456.54756083898246,456.5396939930506,457.53962303791195,456.5396939930506,457.53962303791195,None,,456.5396939930506,457.53962303791195,4.2492,457.66372305806726,None,,,,,,,DEC014,001,2022_Sep_08_1509,2-25_cond_decay_EYE-try,2021.2.3,120.19702185389359,
left,0.75,1.0,0,0,0,0,0,2,0,2,0,1,0,10,5,,,,,,,,,,,,,,,10s,459.09661294333637,460.0976552651264,460.08089294005185,None,461.08148345630616,461.3899858673103,461.08148345630616,461.3899858673103,461.3809514329769,None,461.3809514329769,None,space,0.5854895832017064,461.3809514329769,None,0.3019,462.0963047989644,None,,,,,,,DEC014,001,2022_Sep_08_1509,2-25_cond_decay_EYE-try,2021.2.3,120.19702185389359,
right,1.0,0.75,0,0,0,0,0,2,0,2,0,1,1,11,3,,,,,,,,,,,,,,,10s,463.52973218029365,464.53123151231557,464.5148606169969,None,465.51494457991794,466.7732493323274,465.51494457991794,466.7732493323274,466.7732493323274,None,466.7732493323274,None,space,0.4571962049230933,466.7732493323274,None,1.2563,467.3485573302023,None,,,,,,,DEC014,001,2022_Sep_08_1509,2-25_cond_decay_EYE-try,2021.2.3,120.19702185389359,
left,1.0,0.75,1,0,0,0,0,2,0,2,0,1,2,12,0,,,,,,,,,,,,,,,10s,468.79028302198276,469.7900672792457,469.78106378996745,None,470.78134166123345,480.04792782804,470.78134166123345,480.04792782804,480.04792782804,None,480.04792782804,None,space,0.742442007176578,480.04792782804,None,9.2654,480.91328837908804,None,,,,,,,DEC014,001,2022_Sep_08_1509,2-25_cond_decay_EYE-try,2021.2.3,120.19702185389359,
left,0.75,1.0,0,0,0,0,0,2,0,2,0,1,3,13,7,,,,,,,,,,,,,,,10s,482.3556889789179,483.35615433193743,483.3481522402726,None,484.340000025928,485.9482976133004,484.340000025928,485.9482976133004,485.9482976133004,None,485.9482976133004,None,space,0.4421091261319816,485.9482976133004,None,1.6018,486.51380589418113,None,,,,,,,DEC014,001,2022_Sep_08_1509,2-25_cond_decay_EYE-try,2021.2.3,120.19702185389359,
right,1.0,0.75,0,0,0,0,0,2,0,2,0,1,4,14,1,,,,,,,,,,,,,,,10s,487.9471547869034,488.94790430832654,488.93988243397325,None,489.94024706911296,494.01549612311646,489.94024706911296,494.01549612311646,494.0066554732621,495.0066613149829,494.0066554732621,495.0066613149829,None,,494.0066554732621,495.0066613149829,4.0708,495.1302897329442,None,,,,,,,DEC014,001,2022_Sep_08_1509,2-25_cond_decay_EYE-try,2021.2.3,120.19702185389359,
right,0.75,1.0,1,0,0,0,0,2,0,2,0,1,5,15,2,,,,,,,,,,,,,,,10s,496.56404311722144,497.56459317030385,497.5479674763046,None,498.5485866931267,508.2818625951186,498.5485866931267,508.2818625951186,508.2818625951186,None,508.2818625951186,None,None,,508.2818625951186,None,9.7269,509.38919366011396,None,,,,,,,DEC014,001,2022_Sep_08_1509,2-25_cond_decay_EYE-try,2021.2.3,120.19702185389359,
right,1.0,0.75,0,0,0,0,0,2,0,2,0,1,6,16,8,,,,,,,,,,,,,,,10s,510.8221681569703,511.8240148741752,511.8150262553245,None,512.8153264671564,519.1657116990536,512.8153264671564,519.1657116990536,519.1569933393039,None,519.1569933393039,None,space,0.40945272613316774,519.1569933393039,None,6.3464,519.6970465430059,None,,,,,,,DEC014,001,2022_Sep_08_1509,2-25_cond_decay_EYE-try,2021.2.3,120.19702185389359,
right,1.0,0.75,0,0,0,0,0,2,0,2,0,1,7,17,9,,,,,,,,,,,,,,,10s,521.1306378021836,522.1318694609217,522.1154622230679,None,523.1155962580815,524.8905620602891,523.1155962580815,524.8905620602891,524.8905620602891,None,524.8905620602891,None,None,,524.8905620602891,None,1.7716,526.0060507822782,None,,,,,,,DEC014,001,2022_Sep_08_1509,2-25_cond_decay_EYE-try,2021.2.3,120.19702185389359,
left,0.75,1.0,0,0,0,0,0,2,0,2,0,1,8,18,6,,,,,,,,,,,,,,,10s,527.4395137499087,528.44060761109,528.4316146243364,None,529.4322430030443,534.2574902670458,529.4322430030443,534.2574902670458,534.2486734101549,535.2487790849991,534.2486734101549,535.2487790849991,None,,534.2486734101549,535.2487790849991,4.8237,535.3646822213195,None,,,,,,,DEC014,001,2022_Sep_08_1509,2-25_cond_decay_EYE-try,2021.2.3,120.19702185389359,
left,0.75,1.0,0,0,0,0,0,2,0,2,0,1,9,19,4,,,,,,,,,,,,,,,10s,536.7978480253369,537.798523819074,537.7904902989976,None,538.7901769769378,544.7485239701346,538.7901769769378,544.7485239701346,544.7406680551358,None,544.7406680551358,None,space,0.9137944369576871,544.7406680551358,None,5.9527,545.7807164900005,None,,,,,,,DEC014,001,2022_Sep_08_1509,2-25_cond_decay_EYE-try,2021.2.3,120.19702185389359,
,,,,0,0,0,0,2,0,2,0,,,,,,,,,,,,,,,,,,,,,,,,,,,,,,,,,,,,,,,,,,,,,DEC014,001,2022_Sep_08_1509,2-25_cond_decay_EYE-try,2021.2.3,120.19702185389359,
left,0.75,1.0,0,0,0,0,0,3,0,3,0,0,0,0,2,,,,,,,,,546.6809760429896,None,546.6809760429896,None,546.6809760429896,None,3s,552.7321133809164,553.7327831462026,553.7237039180472,None,554.7237182301469,557.5161530589685,554.7237182301469,557.5161530589685,557.5161530589685,None,557.5161530589685,None,space,0.27427398413419724,557.5161530589685,None,2.7868,557.9144194452092,None,,,,,,,DEC014,001,2022_Sep_08_1509,2-25_cond_decay_EYE-try,2021.2.3,120.19702185389359,
right,1.0,0.75,0,0,0,0,0,3,0,3,0,0,1,1,0,,,,,,,,,,,,,,,3s,559.3563606282696,560.3570779971778,560.3493634290062,None,561.3487079651095,562.5411621662788,561.3487079651095,562.5411621662788,562.5323205702007,None,562.5323205702007,None,space,0.3861310728825629,562.5323205702007,None,1.1888,563.0390736460686,None,,,,,,,DEC014,001,2022_Sep_08_1509,2-25_cond_decay_EYE-try,2021.2.3,120.19702185389359,
left,1.0,0.75,1,0,0,0,0,3,0,3,0,0,2,2,8,,,,,,,,,,,,,,,3s,564.4827863429673,565.48221513303,565.4741622302681,None,566.4746805820614,568.3908745222725,566.4746805820614,568.3908745222725,568.3908745222725,None,568.3908745222725,None,space,0.43958371318876743,568.3908745222725,None,1.9122,568.9560188362375,None,,,,,,,DEC014,001,2022_Sep_08_1509,2-25_cond_decay_EYE-try,2021.2.3,120.19702185389359,
left,0.75,1.0,0,0,0,0,0,3,0,3,0,0,3,3,4,,,,,,,,,,,,,,,3s,570.3898412892595,571.3904635189101,571.3823811709881,None,572.3824329413474,572.7995398202911,572.3824329413474,572.7995398202911,572.7995398202911,None,572.7995398202911,None,space,0.5909118349663913,572.7995398202911,None,0.4178,573.5149476900697,None,,,,,,,DEC014,001,2022_Sep_08_1509,2-25_cond_decay_EYE-try,2021.2.3,120.19702185389359,
left,0.75,1.0,0,0,0,0,0,3,0,3,0,0,4,4,5,,,,,,,,,,,,,,,3s,574.9399751662277,575.9405904803425,575.932567553129,None,576.9326629689895,578.6241453299299,576.9326629689895,578.6241453299299,578.6241453299299,None,578.6241453299299,None,space,0.3422476127743721,578.6241453299299,None,1.692,579.0897177509032,None,,,,,,,DEC014,001,2022_Sep_08_1509,2-25_cond_decay_EYE-try,2021.2.3,120.19702185389359,
right,1.0,0.75,0,0,0,0,0,3,0,3,0,0,5,5,6,,,,,,,,,,,,,,,3s,580.5311063411646,581.5323640680872,581.5243185469881,None,582.5245746579021,583.4245495111682,582.5245746579021,583.4245495111682,583.4158535683528,584.4159788060933,583.4158535683528,584.4159788060933,None,,583.4158535683528,584.4159788060933,0.8977,584.5396166741848,None,,,,,,,DEC014,001,2022_Sep_08_1509,2-25_cond_decay_EYE-try,2021.2.3,120.19702185389359,
left,0.75,1.0,0,0,0,0,0,3,0,3,0,0,6,6,1,,,,,,,,,,,,,,,3s,585.9816362382844,586.9828627901152,586.9662809860893,None,587.9655699231662,588.157263868954,587.9655699231662,588.157263868954,588.157263868954,None,588.157263868954,None,space,0.5851880740374327,588.157263868954,None,0.1892,588.8730924581178,None,,,,,,,DEC014,001,2022_Sep_08_1509,2-25_cond_decay_EYE-try,2021.2.3,120.19702185389359,
right,0.75,1.0,1,0,0,0,0,3,0,3,0,0,7,7,9,,,,,,,,,,,,,,,3s,590.306112641003,591.3082673721947,591.2991854632273,None,592.2995266020298,595.2490227702074,592.2995266020298,595.2490227702074,595.2412373949774,596.2411379241385,595.2412373949774,596.2411379241385,None,,595.2412373949774,596.2411379241385,2.9461,596.3650367730297,None,,,,,,,DEC014,001,2022_Sep_08_1509,2-25_cond_decay_EYE-try,2021.2.3,120.19702185389359,
left,0.75,1.0,0,0,0,0,0,3,0,3,0,0,8,8,3,,,,,,,,,,,,,,,3s,597.8064435720444,598.807745452039,598.7907526502386,None,599.7990088202059,601.0909405560233,599.7990088202059,601.0909405560233,601.0832302551717,None,601.0832302551717,None,space,0.42723411601036787,601.0832302551717,None,1.2908,601.6400331379846,None,,,,,,,DEC014,001,2022_Sep_08_1509,2-25_cond_decay_EYE-try,2021.2.3,120.19702185389359,
right,1.0,0.75,0,0,0,0,0,3,0,3,0,0,9,9,7,,,,,,,,,,,,,,,3s,603.0730209769681,604.0743405539542,604.0578574929386,None,605.0582534461282,607.2079410860315,605.0582534461282,607.2079410860315,607.2079410860315,None,607.2079410860315,None,space,0.4225246929563582,607.2079410860315,None,2.1455,607.7491682539694,None,,,,,,,DEC014,001,2022_Sep_08_1509,2-25_cond_decay_EYE-try,2021.2.3,120.19702185389359,
right,1.0,0.75,0,0,0,0,0,3,0,3,0,1,0,10,7,,,,,,,,,,,,,,,3s,609.1817319439724,610.1832378241234,610.1741765891202,None,611.1746961479075,611.932861035224,611.1746961479075,611.932861035224,611.9248542720452,612.9241782780737,611.9248542720452,612.9241782780737,None,,611.9248542720452,612.9241782780737,0.7555,613.0485435109586,None,,,,,,,DEC014,001,2022_Sep_08_1509,2-25_cond_decay_EYE-try,2021.2.3,120.19702185389359,
left,1.0,0.75,1,0,0,0,0,3,0,3,0,1,1,11,8,,,,,,,,,,,,,,,3s,614.4821939263493,615.4835037100129,615.4743783310987,None,616.4751883889548,617.3085573702119,616.4751883889548,617.3085573702119,617.2997350683436,618.299693968147,617.2997350683436,618.299693968147,None,,617.2997350683436,618.299693968147,0.8281,618.415374502074,None,,,,,,,DEC014,001,2022_Sep_08_1509,2-25_cond_decay_EYE-try,2021.2.3,120.19702185389359,
left,0.75,1.0,0,0,0,0,0,3,0,3,0,1,2,12,3,,,,,,,,,,,,,,,3s,619.8480187612586,620.8501456980594,620.8410834241658,None,621.8410375872627,624.8247511112131,621.8410375872627,624.8247511112131,624.8165208152495,None,624.8165208152495,None,space,0.1739363418892026,624.8165208152495,None,2.9806,625.1155700879171,None,,,,,,,DEC014,001,2022_Sep_08_1509,2-25_cond_decay_EYE-try,2021.2.3,120.19702185389359,
right,0.75,1.0,1,0,0,0,0,3,0,3,0,1,3,13,9,,,,,,,,,,,,,,,3s,626.548672656063,627.5496647623368,627.5416268990375,None,628.5417266623117,631.307806560304,628.5417266623117,631.307806560304,631.2999958149157,None,631.2999958149157,None,space,0.2744187656790018,631.2999958149157,None,2.766,631.6920173773542,None,,,,,,,DEC014,001,2022_Sep_08_1509,2-25_cond_decay_EYE-try,2021.2.3,120.19702185389359,
left,0.75,1.0,0,0,0,0,0,3,0,3,0,1,4,14,1,,,,,,,,,,,,,,,3s,633.133699900005,634.1334689939395,634.1243688613176,None,635.1246591890231,638.1001279172488,635.1246591890231,638.1001279172488,638.1001279172488,None,638.1001279172488,None,None,,638.1001279172488,None,2.9727,639.215580496937,None,,,,,,,DEC014,001,2022_Sep_08_1509,2-25_cond_decay_EYE-try,2021.2.3,120.19702185389359,
right,1.0,0.75,0,0,0,0,0,3,0,3,0,1,5,15,2,,,,,,,,,,,,,,,3s,640.6504103043117,641.6498433053493,641.6412391890772,None,642.64175025234,644.4834724501707,642.64175025234,644.4834724501707,644.4834724501707,None,644.4834724501707,None,space,0.45899619767442346,644.4834724501707,None,1.8387,645.0738332392648,None,,,,,,,DEC014,001,2022_Sep_08_1509,2-25_cond_decay_EYE-try,2021.2.3,120.19702185389359,
right,1.0,0.75,0,0,0,0,0,3,0,3,0,1,6,16,6,,,,,,,,,,,,,,,3s,646.500041465275,647.4999339501373,647.4916857769713,None,648.4917440651916,650.7919319490902,648.4917440651916,650.7919319490902,650.7919319490902,None,650.7919319490902,None,None,,650.7919319490902,None,2.3002,651.9071285631508,None,,,,,,,DEC014,001,2022_Sep_08_1509,2-25_cond_decay_EYE-try,2021.2.3,120.19702185389359,
right,1.0,0.75,0,0,0,0,0,3,0,3,0,1,7,17,0,,,,,,,,,,,,,,,3s,653.331943385303,654.3329870630987,654.3248624820262,None,655.3248275700025,656.883163549006,655.3248275700025,656.883163549006,656.8752578510903,657.8755225399509,656.8752578510903,657.8755225399509,None,,656.8752578510903,657.8755225399509,1.5529,657.9902231581509,None,,,,,,,DEC014,001,2022_Sep_08_1509,2-25_cond_decay_EYE-try,2021.2.3,120.19702185389359,
left,0.75,1.0,0,0,0,0,0,3,0,3,0,1,8,18,4,,,,,,,,,,,,,,,3s,659.4326088819653,660.4333810643293,660.4253662540577,None,661.425577417016,661.8089942280203,661.425577417016,661.8089942280203,661.8001789948903,None,661.8001789948903,None,space,0.43029760010540485,661.8001789948903,None,0.3794,662.3578650401905,None,,,,,,,DEC014,001,2022_Sep_08_1509,2-25_cond_decay_EYE-try,2021.2.3,120.19702185389359,
left,0.75,1.0,0,0,0,0,0,3,0,3,0,1,9,19,5,,,,,,,,,,,,,,,3s,663.7904910272919,664.7920753839426,664.7753926920705,None,665.7746442500502,668.3089732979424,665.7746442500502,668.3089732979424,668.3089732979424,None,668.3089732979424,None,space,0.28944065421819687,668.3089732979424,None,2.5269,668.7237388691865,None,,,,,,,DEC014,001,2022_Sep_08_1509,2-25_cond_decay_EYE-try,2021.2.3,120.19702185389359,
,,,,0,0,0,0,3,0,3,0,,,,,,,,,,,,,,,,,,,,,,,,,,,,,,,,,,,,,,,,,,,,,DEC014,001,2022_Sep_08_1509,2-25_cond_decay_EYE-try,2021.2.3,120.19702185389359,
,,,,0,0,0,0,,,,,,,,,,,,,,,,,,,,,,,,,,,,,,,,,,,,,,,,,,,669.624397891108,None,669.624397891108,None,669.624397891108,None,DEC014,001,2022_Sep_08_1509,2-25_cond_decay_EYE-try,2021.2.3,120.19702185389359,
left,0.75,1.0,0,1,0,1,0,0,0,0,0,0,0,0,2,,,,,,,,,674.624289880041,None,674.624289880041,None,674.624289880041,None,1s,681.457782112062,682.4590005930513,682.4422104549594,None,683.4420819580555,684.1088755559176,683.4420819580555,684.1088755559176,684.1088755559176,None,684.1088755559176,None,space,0.2895954246632755,684.1088755559176,None,0.6626,684.5239493139088,None,,,,,,,DEC014,001,2022_Sep_08_1509,2-25_cond_decay_EYE-try,2021.2.3,120.19702185389359,
left,0.75,1.0,0,1,0,1,0,0,0,0,0,0,1,1,4,,,,,,,,,,,,,,,1s,685.9574518352747,686.9591041509993,686.9500329950824,None,687.9504717332311,688.3089988343418,687.9504717332311,688.3089988343418,688.3089988343418,None,688.3089988343418,None,space,0.23340270621702075,688.3089988343418,None,0.3567,688.6591111640446,None,,,,,,,DEC014,001,2022_Sep_08_1509,2-25_cond_decay_EYE-try,2021.2.3,120.19702185389359,
left,0.75,1.0,0,1,0,1,0,0,0,0,0,0,2,2,6,,,,,,,,,,,,,,,1s,690.0990543928929,691.1003009891137,691.0922280531377,None,692.0919759180397,692.250793046318,692.0919759180397,692.250793046318,692.2421121401712,None,692.2421121401712,None,space,0.3243337762542069,692.2421121401712,None,0.1534,692.6843597390689,None,,,,,,,DEC014,001,2022_Sep_08_1509,2-25_cond_decay_EYE-try,2021.2.3,120.19702185389359,
right,1.0,0.75,0,1,0,1,0,0,0,0,0,0,3,3,7,,,,,,,,,,,,,,,1s,694.1241811881773,695.125686480198,695.1177009330131,None,696.116647887975,696.5172468982637,696.116647887975,696.5172468982637,696.5084468522109,None,696.5084468522109,None,space,0.39401585701853037,696.5084468522109,None,0.3954,697.0240147900768,None,,,,,,,DEC014,001,2022_Sep_08_1509,2-25_cond_decay_EYE-try,2021.2.3,120.19702185389359,
left,0.75,1.0,0,1,0,1,0,0,0,0,0,0,4,4,8,,,,,,,,,,,,,,,1s,698.4744861270301,699.4753165971488,699.4671678273007,None,700.4672626932152,700.7507477053441,700.4672626932152,700.7507477053441,700.7419125689194,None,700.7419125689194,None,space,0.30456887278705835,700.7419125689194,None,0.278,701.1677377731539,None,,,,,,,DEC014,001,2022_Sep_08_1509,2-25_cond_decay_EYE-try,2021.2.3,120.19702185389359,
right,1.0,0.75,0,1,0,1,0,0,0,0,0,0,5,5,9,,,,,,,,,,,,,,,1s,702.6091575911269,703.6085025472566,703.6003601369448,None,704.6004234920256,705.0676443092525,704.6004234920256,705.0676443092525,705.0676443092525,None,705.0676443092525,None,space,0.34683291194960475,705.0676443092525,None,0.4665,705.5337100639008,None,,,,,,,DEC014,001,2022_Sep_08_1509,2-25_cond_decay_EYE-try,2021.2.3,120.19702185389359,
left,0.75,1.0,0,1,0,1,0,0,0,0,0,0,6,6,5,,,,,,,,,,,,,,,1s,706.9825357613154,707.9836003701203,707.9672506330535,None,708.9673418789171,709.3676912002265,708.9673418789171,709.3676912002265,709.3676912002265,None,709.3676912002265,None,space,0.25477884989231825,709.3676912002265,None,0.395,709.7497901329771,None,,,,,,,DEC014,001,2022_Sep_08_1509,2-25_cond_decay_EYE-try,2021.2.3,120.19702185389359,
right,0.75,1.0,1,1,0,1,0,0,0,0,0,0,7,7,0,,,,,,,,,,,,,,,1s,711.1825558072887,712.1839641192928,712.1759466952644,None,713.1760337650776,None,713.1760337650776,None,713.5339821670204,None,713.5339821670204,None,space,0.0004249401390552521,713.5339821670204,None,0.3595,713.6511316192336,None,,,,,,,DEC014,001,2022_Sep_08_1509,2-25_cond_decay_EYE-try,2021.2.3,120.19702185389359,
right,1.0,0.75,0,1,0,1,0,0,0,0,0,0,8,8,3,,,,,,,,,,,,,,,1s,715.0915985712782,716.0924808671698,716.0843177931383,None,717.0844937171787,717.7337099849246,717.0844937171787,717.7337099849246,717.7255738829263,None,717.7255738829263,None,space,0.25684287305921316,717.7255738829263,None,0.6453,718.1083802389912,None,,,,,,,DEC014,001,2022_Sep_08_1509,2-25_cond_decay_EYE-try,2021.2.3,120.19702185389359,
left,1.0,0.75,1,1,0,1,0,0,0,0,0,0,9,9,1,,,,,,,,,,,,,,,1s,719.5427126479335,720.5426194472238,720.5346006392501,None,721.5337694073096,722.2342394990847,721.5337694073096,722.2342394990847,722.2342394990847,None,722.2342394990847,None,space,0.41218460304662585,722.2342394990847,None,0.6966,722.7743149609305,None,,,,,,,DEC014,001,2022_Sep_08_1509,2-25_cond_decay_EYE-try,2021.2.3,120.19702185389359,
right,0.75,1.0,1,1,0,1,0,0,0,0,0,1,0,10,0,,,,,,,,,,,,,,,1s,724.2006545201875,725.2003672132269,725.1923033362255,None,726.1929462640546,727.0004859510809,726.1929462640546,727.0004859510809,727.0004859510809,None,727.0004859510809,None,space,0.3739939001388848,727.0004859510809,None,0.8082,727.492550089024,None,,,,,,,DEC014,001,2022_Sep_08_1509,2-25_cond_decay_EYE-try,2021.2.3,120.19702185389359,
right,1.0,0.75,0,1,0,1,0,0,0,0,0,1,1,11,3,,,,,,,,,,,,,,,1s,728.9242526921444,729.9254383640364,729.9090752382763,None,730.9092120951973,731.2342503559776,730.9092120951973,731.2342503559776,731.2342503559776,None,731.2342503559776,None,space,0.5081468508578837,731.2342503559776,None,0.3212,731.8665158422664,None,,,,,,,DEC014,001,2022_Sep_08_1509,2-25_cond_decay_EYE-try,2021.2.3,120.19702185389359,
left,1.0,0.75,1,1,0,1,0,0,0,0,0,1,2,12,1,,,,,,,,,,,,,,,1s,733.3083640709519,734.3096989830956,734.292711941991,None,735.2929553641006,736.0180480559357,735.2929553641006,736.0180480559357,736.0180480559357,None,736.0180480559357,None,None,,736.0180480559357,None,0.7178,737.1329159801826,None,,,,,,,DEC014,001,2022_Sep_08_1509,2-25_cond_decay_EYE-try,2021.2.3,120.19702185389359,
left,0.75,1.0,0,1,0,1,0,0,0,0,0,1,3,13,6,,,,,,,,,,,,,,,1s,738.5580480531789,739.5590923880227,739.5510241249576,None,740.5512049640529,741.2680761469528,740.5512049640529,741.2680761469528,741.2680761469528,None,741.2680761469528,None,space,0.30640365090221167,741.2680761469528,None,0.7154,741.6993557289243,None,,,,,,,DEC014,001,2022_Sep_08_1509,2-25_cond_decay_EYE-try,2021.2.3,120.19702185389359,
right,1.0,0.75,0,1,0,1,0,0,0,0,0,1,4,14,9,,,,,,,,,,,,,,,1s,743.1326645840891,744.1341628949158,744.1176210138947,None,745.1174179222435,745.4844987820834,745.1174179222435,745.4844987820834,745.4844987820834,None,745.4844987820834,None,space,0.4498997791670263,745.4844987820834,None,0.3667,746.0579283670522,None,,,,,,,DEC014,001,2022_Sep_08_1509,2-25_cond_decay_EYE-try,2021.2.3,120.19702185389359,
right,1.0,0.75,0,1,0,1,0,0,0,0,0,1,5,15,2,,,,,,,,,,,,,,,1s,747.4910185341723,748.4927260400727,748.4847763539292,None,749.4839200810529,749.9514604392461,749.4839200810529,749.9514604392461,749.9514604392461,None,749.9514604392461,None,space,0.4230123022571206,749.9514604392461,None,0.4658,750.4993990492076,None,,,,,,,DEC014,001,2022_Sep_08_1509,2-25_cond_decay_EYE-try,2021.2.3,120.19702185389359,
left,0.75,1.0,0,1,0,1,0,0,0,0,0,1,6,16,4,,,,,,,,,,,,,,,1s,751.9332212959416,752.9347408353351,752.925722355023,None,753.9263430959545,754.4346811599098,753.9263430959545,754.4346811599098,754.4259333931841,None,754.4259333931841,None,space,0.3004700569435954,754.4259333931841,None,0.5015,754.8495911732316,None,,,,,,,DEC014,001,2022_Sep_08_1509,2-25_cond_decay_EYE-try,2021.2.3,120.19702185389359,
right,1.0,0.75,0,1,0,1,0,0,0,0,0,1,7,17,7,,,,,,,,,,,,,,,1s,756.2915126150474,757.2931078900583,757.2840315313078,None,758.2849279292859,758.7183423950337,758.2849279292859,758.7183423950337,758.7183423950337,None,758.7183423950337,None,None,,758.7183423950337,None,0.4279,759.8332770369016,None,,,,,,,DEC014,001,2022_Sep_08_1509,2-25_cond_decay_EYE-try,2021.2.3,120.19702185389359,
left,0.75,1.0,0,1,0,1,0,0,0,0,0,1,8,18,8,,,,,,,,,,,,,,,1s,761.2667270759121,762.2676986041479,762.2510143523104,None,763.2515730699524,763.5181638090871,763.2515730699524,763.5181638090871,763.5181638090871,None,763.5181638090871,None,space,0.3123132851906121,763.5181638090871,None,0.262,763.9578598542139,None,,,,,,,DEC014,001,2022_Sep_08_1509,2-25_cond_decay_EYE-try,2021.2.3,120.19702185389359,
left,0.75,1.0,0,1,0,1,0,0,0,0,0,1,9,19,5,,,,,,,,,,,,,,,1s,765.3912196638994,766.3927744701505,766.3847667323425,None,767.3842846401967,767.6430438729003,767.3842846401967,767.6430438729003,767.6341903172433,None,767.6341903172433,None,space,0.3163016722537577,767.6341903172433,None,0.254,768.0676295342855,None,,,,,,,DEC014,001,2022_Sep_08_1509,2-25_cond_decay_EYE-try,2021.2.3,120.19702185389359,
,,,,1,0,1,0,0,0,0,0,,,,,,,,,,,,,,,,,,,,,,,,,,,,,,,,,,,,,,,,,,,,,DEC014,001,2022_Sep_08_1509,2-25_cond_decay_EYE-try,2021.2.3,120.19702185389359,
left,0.75,1.0,0,1,0,1,0,1,0,1,0,0,0,0,3,,,,,,,,,768.9755713730119,None,768.9755713730119,None,768.9755713730119,None,10s,773.5914841131307,774.5930370213464,774.5760698239319,None,775.5761681292206,781.0011954093352,775.5761681292206,781.0011954093352,781.0097596682608,None,781.0097596682608,None,space,0.4207355920225382,781.0097596682608,None,5.4263,781.5517855961807,None,,,,,,,DEC014,001,2022_Sep_08_1509,2-25_cond_decay_EYE-try,2021.2.3,120.19702185389359,
left,0.75,1.0,0,1,0,1,0,1,0,1,0,0,1,1,4,,,,,,,,,,,,,,,10s,782.9920388013124,783.9932642900385,783.9852407253347,None,784.984981647227,788.6345986239612,784.984981647227,788.6345986239612,788.6267996630631,789.6265394990332,788.6267996630631,789.6265394990332,None,,788.6267996630631,789.6265394990332,3.6442,789.7507275892422,None,,,,,,,DEC014,001,2022_Sep_08_1509,2-25_cond_decay_EYE-try,2021.2.3,120.19702185389359,
left,0.75,1.0,0,1,0,1,0,1,0,1,0,0,2,2,5,,,,,,,,,,,,,,,10s,791.183670385275,792.1844469672069,792.1764450399205,None,793.1764985471964,799.2688215742819,793.1764985471964,799.2688215742819,799.2688215742819,None,799.2688215742819,None,space,0.32166603673249483,799.2688215742819,None,6.0899,799.7168427440338,None,,,,,,,DEC014,001,2022_Sep_08_1509,2-25_cond_decay_EYE-try,2021.2.3,120.19702185389359,
right,1.0,0.75,0,1,0,1,0,1,0,1,0,0,3,3,7,,,,,,,,,,,,,,,10s,801.151353398338,802.1515945573337,802.1435367469676,None,803.1430615400895,806.8682448342443,803.1430615400895,806.8682448342443,806.8682448342443,None,806.8682448342443,None,None,,806.8682448342443,None,3.7229,807.9843163960613,None,,,,,,,DEC014,001,2022_Sep_08_1509,2-25_cond_decay_EYE-try,2021.2.3,120.19702185389359,
right,0.75,1.0,1,1,0,1,0,1,0,1,0,0,4,4,8,,,,,,,,,,,,,,,10s,809.4172377833165,810.4183688871562,810.4020950403064,None,811.4021550118923,819.9184256033041,811.4021550118923,819.9184256033041,819.9184256033041,None,819.9184256033041,None,space,0.18398537207394838,819.9184256033041,None,8.5153,820.2338678380474,None,,,,,,,DEC014,001,2022_Sep_08_1509,2-25_cond_decay_EYE-try,2021.2.3,120.19702185389359,
left,0.75,1.0,0,1,0,1,0,1,0,1,0,0,5,5,1,,,,,,,,,,,,,,,10s,821.6673446781933,822.6685209530406,822.6604084041901,None,823.659715003334,824.335245794151,823.659715003334,824.335245794151,824.3273373390548,None,824.3273373390548,None,space,0.6711562620475888,824.3273373390548,None,0.6704,825.1258053900674,None,,,,,,,DEC014,001,2022_Sep_08_1509,2-25_cond_decay_EYE-try,2021.2.3,120.19702185389359,
right,1.0,0.75,0,1,0,1,0,1,0,1,0,0,6,6,0,,,,,,,,,,,,,,,10s,826.558825161308,827.5599055751227,827.5520612681285,None,828.5517847151496,833.5514799901284,828.5517847151496,833.5514799901284,833.5436876523308,834.5435883700848,833.5436876523308,834.5435883700848,None,,833.5436876523308,834.5435883700848,4.9974,834.6674351459369,None,,,,,,,DEC014,001,2022_Sep_08_1509,2-25_cond_decay_EYE-try,2021.2.3,120.19702185389359,
left,0.75,1.0,0,1,0,1,0,1,0,1,0,0,7,7,9,,,,,,,,,,,,,,,10s,836.1002944563515,837.1019645179622,837.0940221291967,None,838.0931738140061,846.2438186132349,838.0931738140061,846.2438186132349,846.2438186132349,None,846.2438186132349,None,space,0.26661938801407814,846.2438186132349,None,8.1501,846.6423399699852,None,,,,,,,DEC014,001,2022_Sep_08_1509,2-25_cond_decay_EYE-try,2021.2.3,120.19702185389359,
right,1.0,0.75,0,1,0,1,0,1,0,1,0,0,8,8,2,,,,,,,,,,,,,,,10s,848.0691780811176,849.0688144182786,849.0608881548978,None,850.0603229422122,853.7018240992911,850.0603229422122,853.7018240992911,853.7018240992911,None,853.7018240992911,None,None,,853.7018240992911,None,3.6357,854.8181540402584,None,,,,,,,DEC014,001,2022_Sep_08_1509,2-25_cond_decay_EYE-try,2021.2.3,120.19702185389359,
left,1.0,0.75,1,1,0,1,0,1,0,1,0,0,9,9,6,,,,,,,,,,,,,,,10s,856.2511800290085,857.2524765492417,857.235150184948,None,858.2355679343455,859.0267331642099,858.2355679343455,859.0267331642099,859.0267331642099,None,859.0267331642099,None,None,,859.0267331642099,None,0.7879,860.1347140492871,None,,,,,,,DEC014,001,2022_Sep_08_1509,2-25_cond_decay_EYE-try,2021.2.3,120.19702185389359,
left,0.75,1.0,0,1,0,1,0,1,0,1,0,1,0,10,9,,,,,,,,,,,,,,,10s,861.5762234940194,862.5777539499104,862.5687949871644,None,863.5688059539534,865.7355834450573,863.5688059539534,865.7355834450573,865.727642450016,866.7270534490235,865.727642450016,866.7270534490235,None,,865.727642450016,866.7270534490235,2.1605,866.8428374133073,None,,,,,,,DEC014,001,2022_Sep_08_1509,2-25_cond_decay_EYE-try,2021.2.3,120.19702185389359,
left,0.75,1.0,0,1,0,1,0,1,0,1,0,1,1,11,1,,,,,,,,,,,,,,,10s,868.2760073831305,869.2768611903302,869.2687830403447,None,870.2690745941363,879.8277455843054,870.2690745941363,879.8277455843054,879.81886678515,None,879.81886678515,None,space,0.3316336730495095,879.81886678515,None,9.5514,880.2762492569163,None,,,,,,,DEC014,001,2022_Sep_08_1509,2-25_cond_decay_EYE-try,2021.2.3,120.19702185389359,
right,1.0,0.75,0,1,0,1,0,1,0,1,0,1,2,12,7,,,,,,,,,,,,,,,10s,881.7096281643026,882.7110262298957,882.7020265720785,None,883.702342164237,886.0779312252998,883.702342164237,886.0779312252998,886.0691854129545,None,886.0691854129545,None,space,0.7133033089339733,886.0691854129545,None,2.3684,886.9029733380303,None,,,,,,,DEC014,001,2022_Sep_08_1509,2-25_cond_decay_EYE-try,2021.2.3,120.19702185389359,
left,1.0,0.75,1,1,0,1,0,1,0,1,0,1,3,13,6,,,,,,,,,,,,,,,10s,888.3430476919748,889.3441503620706,889.3361973171122,None,890.336048563011,899.6529937633313,890.336048563011,899.6529937633313,899.6441559311934,None,899.6441559311934,None,space,0.5543432389385998,899.6441559311934,None,9.3103,900.3267432493158,None,,,,,,,DEC014,001,2022_Sep_08_1509,2-25_cond_decay_EYE-try,2021.2.3,120.19702185389359,
right,0.75,1.0,1,1,0,1,0,1,0,1,0,1,4,14,8,,,,,,,,,,,,,,,10s,901.7595407511108,902.7609499329701,902.7528758030385,None,903.752223872114,913.3863555919379,903.752223872114,913.3863555919379,913.3863555919379,None,913.3863555919379,None,space,0.3561477758921683,913.3863555919379,None,9.6316,913.868026540149,None,,,,,,,DEC014,001,2022_Sep_08_1509,2-25_cond_decay_EYE-try,2021.2.3,120.19702185389359,
left,0.75,1.0,0,1,0,1,0,1,0,1,0,1,5,15,4,,,,,,,,,,,,,,,10s,915.3096191952936,916.3108778251335,916.2940981690772,None,917.294414090924,918.1107156919315,917.294414090924,918.1107156919315,918.1107156919315,None,918.1107156919315,None,None,,918.1107156919315,None,0.8174,919.2268075421453,None,,,,,,,DEC014,001,2022_Sep_08_1509,2-25_cond_decay_EYE-try,2021.2.3,120.19702185389359,
right,1.0,0.75,0,1,0,1,0,1,0,1,0,1,6,16,2,,,,,,,,,,,,,,,10s,920.6598940929398,921.661672111135,921.6525312592275,None,922.6527053150348,923.7781413081102,922.6527053150348,923.7781413081102,923.7694552452303,924.7697009779513,923.7694552452303,924.7697009779513,None,,923.7694552452303,924.7697009779513,1.123,924.8850929639302,None,,,,,,,DEC014,001,2022_Sep_08_1509,2-25_cond_decay_EYE-try,2021.2.3,120.19702185389359,
right,1.0,0.75,0,1,0,1,0,1,0,1,0,1,7,17,3,,,,,,,,,,,,,,,10s,926.3272589133121,927.3282691361383,927.3200326832011,None,928.3194746142253,932.1524969609454,928.3194746142253,932.1524969609454,932.1524969609454,None,932.1524969609454,None,space,0.39801049418747425,932.1524969609454,None,3.8324,932.6769204000011,None,,,,,,,DEC014,001,2022_Sep_08_1509,2-25_cond_decay_EYE-try,2021.2.3,120.19702185389359,
right,1.0,0.75,0,1,0,1,0,1,0,1,0,1,8,18,0,,,,,,,,,,,,,,,10s,934.1017553210258,935.102594464086,935.0945634753443,None,936.0950415222906,945.644801618997,936.0950415222906,945.644801618997,945.644801618997,None,945.644801618997,None,space,0.5456924219615757,945.644801618997,None,9.5496,946.3188427281566,None,,,,,,,DEC014,001,2022_Sep_08_1509,2-25_cond_decay_EYE-try,2021.2.3,120.19702185389359,
left,0.75,1.0,0,1,0,1,0,1,0,1,0,1,9,19,5,,,,,,,,,,,,,,,10s,947.7531932690181,948.7528854310513,948.7448661471717,None,949.7446970823221,956.811765961349,949.7446970823221,956.811765961349,956.811765961349,None,956.811765961349,None,space,0.3467467431910336,956.811765961349,None,7.0639,957.2851194441319,None,,,,,,,DEC014,001,2022_Sep_08_1509,2-25_cond_decay_EYE-try,2021.2.3,120.19702185389359,
,,,,1,0,1,0,1,0,1,0,,,,,,,,,,,,,,,,,,,,,,,,,,,,,,,,,,,,,,,,,,,,,DEC014,001,2022_Sep_08_1509,2-25_cond_decay_EYE-try,2021.2.3,120.19702185389359,
right,0.75,1.0,1,1,0,1,0,2,0,2,0,0,0,0,9,,,,,,,,,958.1852336172014,None,958.1852336172014,None,958.1852336172014,None,3s,970.4871466350742,971.4866371443495,971.4786321879365,None,972.4779107449576,974.5453035272658,972.4779107449576,974.5453035272658,974.5453035272658,None,974.5453035272658,None,space,0.39720735140144825,974.5453035272658,None,2.0635,975.0690573710017,None,,,,,,,DEC014,001,2022_Sep_08_1509,2-25_cond_decay_EYE-try,2021.2.3,120.19702185389359,
right,1.0,0.75,0,1,0,1,0,2,0,2,0,0,1,1,0,,,,,,,,,,,,,,,3s,976.4939909460954,977.4951513833366,977.4870104920119,None,978.4873017352074,980.4952182159759,978.4873017352074,980.4952182159759,980.4952182159759,None,980.4952182159759,None,space,0.3672113409265876,980.4952182159759,None,2.0051,980.9858855120838,None,,,,,,,DEC014,001,2022_Sep_08_1509,2-25_cond_decay_EYE-try,2021.2.3,120.19702185389359,
right,1.0,0.75,0,1,0,1,0,2,0,2,0,0,2,2,2,,,,,,,,,,,,,,,3s,982.4269886692055,983.4282202869654,983.4201511689462,None,984.420134915039,985.2290346999653,984.420134915039,985.2290346999653,985.2290346999653,None,985.2290346999653,None,None,,985.2290346999653,None,0.808,986.3443578910083,None,,,,,,,DEC014,001,2022_Sep_08_1509,2-25_cond_decay_EYE-try,2021.2.3,120.19702185389359,
left,1.0,0.75,1,1,0,1,0,2,0,2,0,0,3,3,5,,,,,,,,,,,,,,,3s,987.777501584962,988.7790290373378,988.7700032200664,None,989.7698187180795,992.1789704980329,989.7698187180795,992.1789704980329,992.1701584062539,None,992.1701584062539,None,space,0.3163070040754974,992.1701584062539,None,2.4033,992.6109045292251,None,,,,,,,DEC014,001,2022_Sep_08_1509,2-25_cond_decay_EYE-try,2021.2.3,120.19702185389359,
right,0.75,1.0,1,1,0,1,0,2,0,2,0,0,4,4,3,,,,,,,,,,,,,,,3s,994.0443413681351,995.045800793916,995.0369212962687,None,996.0366955623031,997.1041031931527,996.0366955623031,997.1041031931527,997.1041031931527,None,997.1041031931527,None,space,0.42240327782928944,997.1041031931527,None,1.0667,997.6454762509093,None,,,,,,,DEC014,001,2022_Sep_08_1509,2-25_cond_decay_EYE-try,2021.2.3,120.19702185389359,
left,0.75,1.0,0,1,0,1,0,2,0,2,0,0,5,5,4,,,,,,,,,,,,,,,3s,999.0856492989697,1000.0872742999345,1000.0792995821685,None,1001.0790008371696,1003.6790324193425,1001.0790008371696,1003.6790324193425,1003.6790324193425,None,1003.6790324193425,None,space,0.3674110728316009,1003.6790324193425,None,2.5969,1004.1687288531102,None,,,,,,,DEC014,001,2022_Sep_08_1509,2-25_cond_decay_EYE-try,2021.2.3,120.19702185389359,
left,0.75,1.0,0,1,0,1,0,2,0,2,0,0,6,6,6,,,,,,,,,,,,,,,3s,1005.6106429742649,1006.6125056212768,1006.6035209610127,None,1007.6039773179218,1008.5288674333133,1007.6039773179218,1008.5288674333133,1008.5201595239341,None,1008.5201595239341,None,space,0.8383574457839131,1008.5201595239341,None,0.922,1009.4790337509476,None,,,,,,,DEC014,001,2022_Sep_08_1509,2-25_cond_decay_EYE-try,2021.2.3,120.19702185389359,
right,1.0,0.75,0,1,0,1,0,2,0,2,0,0,7,7,7,,,,,,,,,,,,,,,3s,1010.9200892741792,1011.9203632492572,1011.912375242915,None,1012.9123233263381,1014.09520979831,1012.9123233263381,1014.09520979831,1014.09520979831,None,1014.09520979831,None,None,,1014.09520979831,None,1.1819,1015.2109862202778,None,,,,,,,DEC014,001,2022_Sep_08_1509,2-25_cond_decay_EYE-try,2021.2.3,120.19702185389359,
left,0.75,1.0,0,1,0,1,0,2,0,2,0,0,8,8,8,,,,,,,,,,,,,,,3s,1016.6440125661902,1017.6457098391838,1017.6375403972343,None,1018.637630877085,1019.5208787810989,1018.637630877085,1019.5208787810989,1019.5121181569993,1020.5118130962364,1019.5121181569993,1020.5118130962364,None,,1019.5121181569993,1020.5118130962364,0.8801,1020.6274192160927,None,,,,,,,DEC014,001,2022_Sep_08_1509,2-25_cond_decay_EYE-try,2021.2.3,120.19702185389359,
left,0.75,1.0,0,1,0,1,0,2,0,2,0,0,9,9,1,,,,,,,,,,,,,,,3s,1022.0695257140324,1023.0710318372585,1023.0542953000404,None,1024.0544291520491,1026.7458845009096,1024.0544291520491,1026.7458845009096,1026.7458845009096,None,1026.7458845009096,None,None,,1026.7458845009096,None,2.687,1027.8529297201894,None,,,,,,,DEC014,001,2022_Sep_08_1509,2-25_cond_decay_EYE-try,2021.2.3,120.19702185389359,
left,1.0,0.75,1,1,0,1,0,2,0,2,0,1,0,10,5,,,,,,,,,,,,,,,3s,1029.294310356956,1030.2956028692424,1030.287556804251,None,1031.2873506061733,1034.2038406799547,1031.2873506061733,1034.2038406799547,1034.1960300463252,None,1034.1960300463252,None,space,0.49848652677610517,1034.1960300463252,None,2.9093,1034.8199535482563,None,,,,,,,DEC014,001,2022_Sep_08_1509,2-25_cond_decay_EYE-try,2021.2.3,120.19702185389359,
right,0.75,1.0,1,1,0,1,0,2,0,2,0,1,1,11,3,,,,,,,,,,,,,,,3s,1036.2541212961078,1037.253838387318,1037.2457637041807,None,1038.2461992963217,1040.8043474643491,1038.2461992963217,1040.8043474643491,1040.7954435572028,1041.7954508662224,1040.7954435572028,1041.7954508662224,None,,1040.7954435572028,1041.7954508662224,2.5514,1041.9195626229048,None,,,,,,,DEC014,001,2022_Sep_08_1509,2-25_cond_decay_EYE-try,2021.2.3,120.19702185389359,
left,0.75,1.0,0,1,0,1,0,2,0,2,0,1,2,12,8,,,,,,,,,,,,,,,3s,1043.3525273702107,1044.354015765246,1044.346009482164,None,1045.3457207111642,1046.4878795202821,1045.3457207111642,1046.4878795202821,1046.4878795202821,None,1046.4878795202821,None,space,0.5186438169330359,1046.4878795202821,None,1.1419,1047.1367192389444,None,,,,,,,DEC014,001,2022_Sep_08_1509,2-25_cond_decay_EYE-try,2021.2.3,120.19702185389359,
left,0.75,1.0,0,1,0,1,0,2,0,2,0,1,3,13,6,,,,,,,,,,,,,,,3s,1048.569905359298,1049.570449925959,1049.5629038400948,None,1050.5629015271552,1052.92102248827,1050.5629015271552,1052.92102248827,1052.92102248827,None,1052.92102248827,None,space,0.33350477600470185,1052.92102248827,None,2.3564,1053.3783953599632,None,,,,,,,DEC014,001,2022_Sep_08_1509,2-25_cond_decay_EYE-try,2021.2.3,120.19702185389359,
right,1.0,0.75,0,1,0,1,0,2,0,2,0,1,4,14,0,,,,,,,,,,,,,,,3s,1054.8110208422877,1055.8126707552,1055.8045521769673,None,1056.7956676292233,1059.3207115163095,1056.7956676292233,1059.3207115163095,1059.3207115163095,1060.3213764759712,1059.3207115163095,1060.3213764759712,None,,1059.3207115163095,1060.3213764759712,2.5192,1060.4442888759077,None,,,,,,,DEC014,001,2022_Sep_08_1509,2-25_cond_decay_EYE-try,2021.2.3,120.19702185389359,
right,1.0,0.75,0,1,0,1,0,2,0,2,0,1,5,15,7,,,,,,,,,,,,,,,3s,1061.8781739599071,1062.8796702269465,1062.8706784090027,None,1063.8713493002579,1066.379424000159,1063.8713493002579,1066.379424000159,1066.37067166809,None,1066.37067166809,None,space,0.4437780687585473,1066.37067166809,None,2.5023,1066.9447336001322,None,,,,,,,DEC014,001,2022_Sep_08_1509,2-25_cond_decay_EYE-try,2021.2.3,120.19702185389359,
right,1.0,0.75,0,1,0,1,0,2,0,2,0,1,6,16,2,,,,,,,,,,,,,,,3s,1068.3699024091475,1069.3707462619059,1069.362731673289,None,1070.362878961023,1072.3630000492558,1070.362878961023,1072.3630000492558,1072.354168199934,None,1072.354168199934,None,space,0.3803560771048069,1072.354168199934,None,1.9928,1072.855107060168,None,,,,,,,DEC014,001,2022_Sep_08_1509,2-25_cond_decay_EYE-try,2021.2.3,120.19702185389359,
right,1.0,0.75,0,1,0,1,0,2,0,2,0,1,7,17,9,,,,,,,,,,,,,,,3s,1074.2868925072253,1075.2882011630572,1075.2791579850018,None,1076.2798442658968,1078.654407252092,1076.2798442658968,1078.654407252092,1078.6464326572604,1079.6457701670006,1078.6464326572604,1079.6457701670006,None,,1078.6464326572604,1079.6457701670006,2.3703,1079.769904345274,None,,,,,,,DEC014,001,2022_Sep_08_1509,2-25_cond_decay_EYE-try,2021.2.3,120.19702185389359,
left,0.75,1.0,0,1,0,1,0,2,0,2,0,1,8,18,1,,,,,,,,,,,,,,,3s,1081.2115303021856,1082.2125404211693,1082.1966421171091,None,1083.1965822163038,1085.2627837629989,1083.1965822163038,1085.2627837629989,1085.2627837629989,None,1085.2627837629989,None,None,,1085.2627837629989,None,2.0651,1086.3704498680308,None,,,,,,,DEC014,001,2022_Sep_08_1509,2-25_cond_decay_EYE-try,2021.2.3,120.19702185389359,
left,0.75,1.0,0,1,0,1,0,2,0,2,0,1,9,19,4,,,,,,,,,,,,,,,3s,1087.8112962269224,1088.813180798199,1088.8051919150166,None,1089.805021326989,1092.0301828649826,1089.805021326989,1092.0301828649826,1092.021385373082,None,1092.021385373082,None,space,0.5051453988999128,1092.021385373082,None,2.219,1092.6532450970262,None,,,,,,,DEC014,001,2022_Sep_08_1509,2-25_cond_decay_EYE-try,2021.2.3,120.19702185389359,
,,,,1,0,1,0,2,0,2,0,,,,,,,,,,,,,,,,,,,,,,,,,,,,,,,,,,,,,,,,,,,,,DEC014,001,2022_Sep_08_1509,2-25_cond_decay_EYE-try,2021.2.3,120.19702185389359,
right,1.0,0.75,0,1,0,1,0,3,0,3,0,0,0,0,5,,,,,,,,,1093.5530322091654,None,1093.5530322091654,None,1093.5530322091654,None,5s,1102.4116541869007,1103.4129511350766,1103.3969363323413,None,1104.4048042139038,1107.947023827117,1104.4048042139038,1107.947023827117,1107.9382105851546,None,1107.9382105851546,None,space,0.3723191609606147,1107.9382105851546,None,3.5359,1108.4367494462058,None,,,,,,,DEC014,001,2022_Sep_08_1509,2-25_cond_decay_EYE-try,2021.2.3,120.19702185389359,
left,0.75,1.0,0,1,0,1,0,3,0,3,0,0,1,1,1,,,,,,,,,,,,,,,5s,1109.8698306763545,1110.8720248951577,1110.862940062303,None,1111.863198384177,1113.4463613722473,1111.863198384177,1113.4463613722473,1113.4463613722473,None,1113.4463613722473,None,None,,1113.4463613722473,None,1.5835,1114.5615494861268,None,,,,,,,DEC014,001,2022_Sep_08_1509,2-25_cond_decay_EYE-try,2021.2.3,120.19702185389359,
right,1.0,0.75,0,1,0,1,0,3,0,3,0,0,2,2,6,,,,,,,,,,,,,,,5s,1115.9955005361699,1116.9965714910068,1116.9801732189953,None,1117.9795129750855,1119.0553809180856,1117.9795129750855,1119.0553809180856,1119.0553809180856,None,1119.0553809180856,None,space,0.33513660402968526,1119.0553809180856,None,1.0759,1119.5202495460398,None,,,,,,,DEC014,001,2022_Sep_08_1509,2-25_cond_decay_EYE-try,2021.2.3,120.19702185389359,
left,0.75,1.0,0,1,0,1,0,3,0,3,0,0,3,3,0,,,,,,,,,,,,,,,5s,1120.953766824212,1121.9550456362776,1121.947041827254,None,1122.947176056914,1124.8047602279112,1122.947176056914,1124.8047602279112,1124.8047602279112,None,1124.8047602279112,None,None,,1124.8047602279112,None,1.8581,1125.9203318608925,None,,,,,,,DEC014,001,2022_Sep_08_1509,2-25_cond_decay_EYE-try,2021.2.3,120.19702185389359,
right,1.0,0.75,0,1,0,1,0,3,0,3,0,0,4,4,7,,,,,,,,,,,,,,,5s,1127.3534995391965,1128.3548327758908,1128.3467858312652,None,1129.3466252461076,1130.2630520802923,1129.3466252461076,1130.2630520802923,1130.255101849325,None,1130.255101849325,None,space,0.5354171860963106,1130.255101849325,None,0.9132,1130.9201128981076,None,,,,,,,DEC014,001,2022_Sep_08_1509,2-25_cond_decay_EYE-try,2021.2.3,120.19702185389359,
left,0.75,1.0,0,1,0,1,0,3,0,3,0,0,5,5,8,,,,,,,,,,,,,,,5s,1132.3544536912814,1133.3550678333268,1133.3469571322203,None,1134.3465033438988,1138.229793973267,1134.3465033438988,1138.229793973267,1138.2219529240392,1139.221947598271,1138.2219529240392,1139.221947598271,None,,1138.2219529240392,1139.221947598271,3.8801,1139.3456611190923,None,,,,,,,DEC014,001,2022_Sep_08_1509,2-25_cond_decay_EYE-try,2021.2.3,120.19702185389359,
right,0.75,1.0,1,1,0,1,0,3,0,3,0,0,6,6,9,,,,,,,,,,,,,,,5s,1140.7795574599877,1141.7801936599426,1141.7636760333553,None,1142.7634895299561,1143.7385371732526,1142.7634895299561,1143.7385371732526,1143.7385371732526,None,1143.7385371732526,None,space,0.7559952083975077,1143.7385371732526,None,0.969,1144.6211328329518,None,,,,,,,DEC014,001,2022_Sep_08_1509,2-25_cond_decay_EYE-try,2021.2.3,120.19702185389359,
right,1.0,0.75,0,1,0,1,0,3,0,3,0,0,7,7,2,,,,,,,,,,,,,,,5s,1146.0455635180697,1147.0466840220615,1147.0386901600286,None,1148.0387383950874,1149.2633367609233,1148.0387383950874,1149.2633367609233,1149.2555236313492,1150.25577699719,1149.2555236313492,1150.25577699719,None,,1149.2555236313492,1150.25577699719,1.2195,1150.3790153171867,None,,,,,,,DEC014,001,2022_Sep_08_1509,2-25_cond_decay_EYE-try,2021.2.3,120.19702185389359,
left,0.75,1.0,0,1,0,1,0,3,0,3,0,0,8,8,3,,,,,,,,,,,,,,,5s,1151.8134847460315,1152.8140598740429,1152.8050842401572,None,1153.8054586052895,1155.2137282933109,1153.8054586052895,1155.2137282933109,1155.2049421290867,1156.205702858977,1155.2049421290867,1156.205702858977,None,,1155.2049421290867,1156.205702858977,1.4022,1156.320326725021,None,,,,,,,DEC014,001,2022_Sep_08_1509,2-25_cond_decay_EYE-try,2021.2.3,120.19702185389359,
left,1.0,0.75,1,1,0,1,0,3,0,3,0,0,9,9,4,,,,,,,,,,,,,,,5s,1157.7553175361827,1158.7558536143042,1158.7467523133382,None,1159.7471015220508,1162.8968392559327,1159.7471015220508,1162.8968392559327,1162.8968392559327,None,1162.8968392559327,None,space,0.5496312421746552,1162.8968392559327,None,3.1505,1163.570827536285,None,,,,,,,DEC014,001,2022_Sep_08_1509,2-25_cond_decay_EYE-try,2021.2.3,120.19702185389359,
left,0.75,1.0,0,1,0,1,0,3,0,3,0,1,0,10,1,,,,,,,,,,,,,,,5s,1165.0043102242053,1166.005494157318,1165.9974173922092,None,1166.9972547530197,1168.5559039199725,1166.9972547530197,1168.5559039199725,1168.5471954122186,1169.5469081182964,1168.5471954122186,1169.5469081182964,None,,1168.5471954122186,1169.5469081182964,1.5571,1169.6712473090738,None,,,,,,,DEC014,001,2022_Sep_08_1509,2-25_cond_decay_EYE-try,2021.2.3,120.19702185389359,
right,1.0,0.75,0,1,0,1,0,3,0,3,0,1,1,11,6,,,,,,,,,,,,,,,5s,1171.1044764751568,1172.1053693601862,1172.0973467710428,None,1173.0975336120464,1176.5803977311589,1173.0975336120464,1176.5803977311589,1176.5726880701259,None,1176.5726880701259,None,space,0.3458501719869673,1176.5726880701259,None,3.477,1177.0466254982166,None,,,,,,,DEC014,001,2022_Sep_08_1509,2-25_cond_decay_EYE-try,2021.2.3,120.19702185389359,
left,0.75,1.0,0,1,0,1,0,3,0,3,0,1,2,12,3,,,,,,,,,,,,,,,5s,1178.479660751298,1179.4803094659,1179.4635732043535,None,1180.4640519618988,1182.8385604051873,1180.4640519618988,1182.8385604051873,1182.8385604051873,None,1182.8385604051873,None,None,,1182.8385604051873,None,2.3719,1183.954473207239,None,,,,,,,DEC014,001,2022_Sep_08_1509,2-25_cond_decay_EYE-try,2021.2.3,120.19702185389359,
left,0.75,1.0,0,1,0,1,0,3,0,3,0,1,3,13,0,,,,,,,,,,,,,,,5s,1185.3873094380833,1186.3893060521223,1186.3803183599375,None,1187.3808074560948,1191.2226343690418,1187.3808074560948,1191.2226343690418,1191.2226343690418,None,1191.2226343690418,None,None,,1191.2226343690418,None,3.8424,1192.3298603072762,None,,,,,,,DEC014,001,2022_Sep_08_1509,2-25_cond_decay_EYE-try,2021.2.3,120.19702185389359,
right,1.0,0.75,0,1,0,1,0,3,0,3,0,1,4,14,5,,,,,,,,,,,,,,,5s,1193.77213316923,1194.77229878027,1194.763799733948,None,1195.763989570085,1199.4553834940307,1195.763989570085,1199.4553834940307,1199.4553834940307,None,1199.4553834940307,None,space,0.42317856615409255,1199.4553834940307,None,3.6918,1200.0044854939915,None,,,,,,,DEC014,001,2022_Sep_08_1509,2-25_cond_decay_EYE-try,2021.2.3,120.19702185389359,
right,1.0,0.75,0,1,0,1,0,3,0,3,0,1,5,15,2,,,,,,,,,,,,,,,5s,1201.4296153453179,1202.4311754992232,1202.4220712310635,None,1203.422455097083,1206.9977963101119,1203.422455097083,1206.9977963101119,1206.9977963101119,None,1206.9977963101119,None,space,0.7687398921698332,1206.9977963101119,None,3.5735,1207.8898270372301,None,,,,,,,DEC014,001,2022_Sep_08_1509,2-25_cond_decay_EYE-try,2021.2.3,120.19702185389359,
right,1.0,0.75,0,1,0,1,0,3,0,3,0,1,6,16,7,,,,,,,,,,,,,,,5s,1209.3299871180207,1210.3309335969388,1210.3228654190898,None,1211.32297248533,1213.5981335472316,1211.32297248533,1213.5981335472316,1213.5981335472316,None,1213.5981335472316,None,space,0.8163759470917284,1213.5981335472316,None,2.2738,1214.5399532923475,None,,,,,,,DEC014,001,2022_Sep_08_1509,2-25_cond_decay_EYE-try,2021.2.3,120.19702185389359,
left,0.75,1.0,0,1,0,1,0,3,0,3,0,1,7,17,8,,,,,,,,,,,,,,,5s,1215.9812831981108,1216.980760365259,1216.9727385039441,None,1217.9732000520453,1222.6813515219837,1217.9732000520453,1222.6813515219837,1222.6813515219837,None,1222.6813515219837,None,space,0.877184244338423,1222.6813515219837,None,4.7052,1223.6815588180907,None,,,,,,,DEC014,001,2022_Sep_08_1509,2-25_cond_decay_EYE-try,2021.2.3,120.19702185389359,
right,0.75,1.0,1,1,0,1,0,3,0,3,0,1,8,18,9,,,,,,,,,,,,,,,5s,1225.1295819398947,1226.1311839651316,1226.1147888782434,None,1227.114052280318,1229.0978835509159,1227.114052280318,1229.0978835509159,1229.0978835509159,None,1229.0978835509159,None,space,0.5966620012186468,1229.0978835509159,None,1.9776,1229.8218131293543,None,,,,,,,DEC014,001,2022_Sep_08_1509,2-25_cond_decay_EYE-try,2021.2.3,120.19702185389359,
left,1.0,0.75,1,1,0,1,0,3,0,3,0,1,9,19,4,,,,,,,,,,,,,,,5s,1231.2552103390917,1232.256580282934,1232.2474907059222,None,1233.2484248923138,1233.8807533099316,1233.2484248923138,1233.8807533099316,1233.8729540132917,None,1233.8729540132917,None,space,0.5335163362324238,1233.8729540132917,None,0.6291,1234.5297109372914,None,,,,,,,DEC014,001,2022_Sep_08_1509,2-25_cond_decay_EYE-try,2021.2.3,120.19702185389359,
,,,,1,0,1,0,3,0,3,0,,,,,,,,,,,,,,,,,,,,,,,,,,,,,,,,,,,,,,,,,,,,,DEC014,001,2022_Sep_08_1509,2-25_cond_decay_EYE-try,2021.2.3,120.19702185389359,
,,,,1,0,1,0,,,,,,,,,,,,,,,,,,,,,,,,,,,,,,,,,,,,,,,,,,,1235.438466832973,None,1235.438466832973,None,1235.438466832973,None,DEC014,001,2022_Sep_08_1509,2-25_cond_decay_EYE-try,2021.2.3,120.19702185389359,
left,0.75,1.0,0,2,0,2,0,0,0,0,0,0,0,0,2,,,,,,,,,1240.4383960720152,None,1240.4383960720152,None,1240.4383960720152,None,10s,1247.9639712381177,1248.9644453641959,1248.9563691182993,None,1249.9560930929147,1250.1482528760098,1249.9560930929147,1250.1482528760098,1250.139491437003,None,1250.139491437003,None,space,0.458976618014276,1250.139491437003,None,0.1886,1250.7303457120433,None,,,,,,,DEC014,001,2022_Sep_08_1509,2-25_cond_decay_EYE-try,2021.2.3,120.19702185389359,
right,0.75,1.0,1,2,0,2,0,0,0,0,0,0,1,1,7,,,,,,,,,,,,,,,10s,1252.163983031176,1253.1644042981789,1253.1563614131883,None,1254.15679575596,1256.973333002068,1254.15679575596,1256.973333002068,1256.96450198628,None,1256.96450198628,None,space,0.41003958508372307,1256.96450198628,None,2.8093,1257.4970075539313,None,,,,,,,DEC014,001,2022_Sep_08_1509,2-25_cond_decay_EYE-try,2021.2.3,120.19702185389359,
left,1.0,0.75,1,2,0,2,0,0,0,0,0,0,2,2,6,,,,,,,,,,,,,,,10s,1258.9466909300536,1259.9478264083154,1259.9397192979231,None,1260.9393564802594,1268.998578517232,1260.9393564802594,1268.998578517232,1268.9898292203434,None,1268.9898292203434,None,space,0.34472490195184946,1268.9898292203434,None,8.054,1269.4637837363407,None,,,,,,,DEC014,001,2022_Sep_08_1509,2-25_cond_decay_EYE-try,2021.2.3,120.19702185389359,
right,1.0,0.75,0,2,0,2,0,0,0,0,0,0,3,3,9,,,,,,,,,,,,,,,10s,1270.8975184112787,1271.8984723519534,1271.8894061311148,None,1272.8899600622244,1273.9901421912946,1272.8899600622244,1273.9901421912946,1273.9815541780554,1274.9817368309014,1273.9815541780554,1274.9817368309014,None,,1273.9815541780554,1274.9817368309014,1.0941,1275.105069576297,None,,,,,,,DEC014,001,2022_Sep_08_1509,2-25_cond_decay_EYE-try,2021.2.3,120.19702185389359,
right,1.0,0.75,0,2,0,2,0,0,0,0,0,0,4,4,4,,,,,,,,,,,,,,,10s,1276.5384265002795,1277.539977162145,1277.5319307120517,None,1278.5319038899615,1284.4738077120855,1278.5319038899615,1284.4738077120855,1284.4738077120855,None,1284.4738077120855,None,None,,1284.4738077120855,None,5.9392,1285.5804801872,None,,,,,,,DEC014,001,2022_Sep_08_1509,2-25_cond_decay_EYE-try,2021.2.3,120.19702185389359,
left,0.75,1.0,0,2,0,2,0,0,0,0,0,0,5,5,0,,,,,,,,,,,,,,,10s,1287.0221268171445,1288.0234772050753,1288.0154521320947,None,1289.0153151913546,1292.1904292320833,1289.0153151913546,1292.1904292320833,1292.181420022156,None,1292.181420022156,None,space,0.3771325391717255,1292.181420022156,None,3.1707,1292.6892883460969,None,,,,,,,DEC014,001,2022_Sep_08_1509,2-25_cond_decay_EYE-try,2021.2.3,120.19702185389359,
left,0.75,1.0,0,2,0,2,0,0,0,0,0,0,6,6,3,,,,,,,,,,,,,,,10s,1294.114090452902,1295.115608387161,1295.1066105761565,None,1296.1073058042675,1297.4986282582395,1296.1073058042675,1297.4986282582395,1297.4897628203034,None,1297.4897628203034,None,None,,1297.4897628203034,None,1.3846,1298.6058900919743,None,,,,,,,DEC014,001,2022_Sep_08_1509,2-25_cond_decay_EYE-try,2021.2.3,120.19702185389359,
right,1.0,0.75,0,2,0,2,0,0,0,0,0,0,7,7,1,,,,,,,,,,,,,,,10s,1300.0394000122324,1301.0403170641512,1301.032275306061,None,1302.031851189211,1302.390613119118,1302.031851189211,1302.390613119118,1302.390613119118,None,1302.390613119118,None,space,0.45594063168391585,1302.390613119118,None,0.3566,1302.97259605024,None,,,,,,,DEC014,001,2022_Sep_08_1509,2-25_cond_decay_EYE-try,2021.2.3,120.19702185389359,
left,0.75,1.0,0,2,0,2,0,0,0,0,0,0,8,8,5,,,,,,,,,,,,,,,10s,1304.4143308862112,1305.415227279067,1305.3985871882178,None,1306.3988737901673,1307.6406798441894,1306.3988737901673,1307.6406798441894,1307.6406798441894,None,1307.6406798441894,None,None,,1307.6406798441894,None,1.2366,1308.75577517692,None,,,,,,,DEC014,001,2022_Sep_08_1509,2-25_cond_decay_EYE-try,2021.2.3,120.19702185389359,
right,1.0,0.75,0,2,0,2,0,0,0,0,0,0,9,9,8,,,,,,,,,,,,,,,10s,1310.1888374979608,1311.189916193951,1311.1818917943165,None,1312.181863526348,1312.4990338869393,1312.181863526348,1312.4990338869393,1312.4990338869393,None,1312.4990338869393,None,None,,1312.4990338869393,None,0.3116,1313.6058474690653,None,,,,,,,DEC014,001,2022_Sep_08_1509,2-25_cond_decay_EYE-try,2021.2.3,120.19702185389359,
left,1.0,0.75,1,2,0,2,0,0,0,0,0,1,0,10,6,,,,,,,,,,,,,,,10s,1315.0480569251813,1316.0487722419202,1316.0407341332175,None,1317.0404567020014,1326.932470946107,1317.0404567020014,1326.932470946107,1326.932470946107,None,1326.932470946107,None,space,0.9220777451992035,1326.932470946107,None,9.891,1327.9814215390943,None,,,,,,,DEC014,001,2022_Sep_08_1509,2-25_cond_decay_EYE-try,2021.2.3,120.19702185389359,
left,0.75,1.0,0,2,0,2,0,0,0,0,0,1,1,11,3,,,,,,,,,,,,,,,10s,1329.4138511149213,1330.4160059159622,1330.4068523640744,None,1331.407288083341,1333.8324271980673,1331.407288083341,1333.8324271980673,1333.8235535649583,None,1333.8235535649583,None,space,0.5029927180148661,1333.8235535649583,None,2.4177,1334.4475855082273,None,,,,,,,DEC014,001,2022_Sep_08_1509,2-25_cond_decay_EYE-try,2021.2.3,120.19702185389359,
right,1.0,0.75,0,2,0,2,0,0,0,0,0,1,2,12,9,,,,,,,,,,,,,,,10s,1335.889005864039,1336.8902392629534,1336.8821250163019,None,1337.8824489573017,1347.3662466462702,1337.8824489573017,1347.3662466462702,1347.3662466462702,None,1347.3662466462702,None,None,,1347.3662466462702,None,9.4805,1348.481451709289,None,,,,,,,DEC014,001,2022_Sep_08_1509,2-25_cond_decay_EYE-try,2021.2.3,120.19702185389359,
left,0.75,1.0,0,2,0,2,0,0,0,0,0,1,3,13,0,,,,,,,,,,,,,,,10s,1349.9224230418913,1350.923847772181,1350.9074092009105,None,1351.9076519790106,1355.9743608441204,1351.9076519790106,1355.9743608441204,1355.9743608441204,None,1355.9743608441204,None,space,0.43219888815656304,1355.9743608441204,None,4.0675,1356.5308388168924,None,,,,,,,DEC014,001,2022_Sep_08_1509,2-25_cond_decay_EYE-try,2021.2.3,120.19702185389359,
right,1.0,0.75,0,2,0,2,0,0,0,0,0,1,4,14,4,,,,,,,,,,,,,,,10s,1357.9661641102284,1358.965433942154,1358.9573935470544,None,1359.9578977720812,1369.8406524183229,1359.9578977720812,1369.8406524183229,1369.8406524183229,None,1369.8406524183229,None,space,0.4379040449857712,1369.8406524183229,None,9.883,1370.4064220059663,None,,,,,,,DEC014,001,2022_Sep_08_1509,2-25_cond_decay_EYE-try,2021.2.3,120.19702185389359,
left,0.75,1.0,0,2,0,2,0,0,0,0,0,1,5,15,2,,,,,,,,,,,,,,,10s,1371.8402350023389,1372.8406980182044,1372.8326049880125,None,1373.8330546701327,1378.9407922099344,1373.8330546701327,1378.9407922099344,1378.9327533291653,1379.932295084931,1378.9327533291653,1379.932295084931,None,,1378.9327533291653,1379.932295084931,5.1056,1380.056992397178,None,,,,,,,DEC014,001,2022_Sep_08_1509,2-25_cond_decay_EYE-try,2021.2.3,120.19702185389359,
left,0.75,1.0,0,2,0,2,0,0,0,0,0,1,6,16,5,,,,,,,,,,,,,,,10s,1381.4898522449657,1382.4911280092783,1382.4830997362733,None,1383.4830394121818,1389.840807902161,1383.4830394121818,1389.840807902161,1389.8326595081016,None,1389.8326595081016,None,space,0.41390680707991123,1389.8326595081016,None,6.3516,1390.3728319630027,None,,,,,,,DEC014,001,2022_Sep_08_1509,2-25_cond_decay_EYE-try,2021.2.3,120.19702185389359,
right,1.0,0.75,0,2,0,2,0,0,0,0,0,1,7,17,1,,,,,,,,,,,,,,,10s,1391.8067292962223,1392.8080547899008,1392.8000669502653,None,1393.7994718719274,1394.2830443233252,1393.7994718719274,1394.2830443233252,1394.2830443233252,1395.2834779513068,1394.2830443233252,1395.2834779513068,None,,1394.2830443233252,1395.2834779513068,0.4837,1395.4065570482053,None,,,,,,,DEC014,001,2022_Sep_08_1509,2-25_cond_decay_EYE-try,2021.2.3,120.19702185389359,
right,1.0,0.75,0,2,0,2,0,0,0,0,0,1,8,18,8,,,,,,,,,,,,,,,10s,1396.831990093924,1397.8326388611458,1397.8246399229392,None,1398.8246534820646,1404.9246732350439,1398.8246534820646,1404.9246732350439,1404.9246732350439,None,1404.9246732350439,None,None,,1404.9246732350439,None,6.0998,1406.031332782004,None,,,,,,,DEC014,001,2022_Sep_08_1509,2-25_cond_decay_EYE-try,2021.2.3,120.19702185389359,
right,0.75,1.0,1,2,0,2,0,0,0,0,0,1,9,19,7,,,,,,,,,,,,,,,10s,1407.4733815789223,1408.4745484790765,1408.458197625354,None,1409.4581432458945,1417.307888845913,1409.4581432458945,1417.307888845913,1417.307888845913,None,1417.307888845913,None,None,,1417.307888845913,None,7.8475,1418.4158551180735,None,,,,,,,DEC014,001,2022_Sep_08_1509,2-25_cond_decay_EYE-try,2021.2.3,120.19702185389359,
,,,,2,0,2,0,0,0,0,0,,,,,,,,,,,,,,,,,,,,,,,,,,,,,,,,,,,,,,,,,,,,,DEC014,001,2022_Sep_08_1509,2-25_cond_decay_EYE-try,2021.2.3,120.19702185389359,
left,0.75,1.0,0,2,0,2,0,1,0,1,0,0,0,0,2,,,,,,,,,1419.3239369061776,None,1419.3239369061776,None,1419.3239369061776,None,1s,1437.107091940008,1438.1086213709787,1438.100427296944,None,1439.1003408329561,1439.966489898041,1439.1003408329561,1439.966489898041,1439.966489898041,None,1439.966489898041,None,space,0.31205987744033337,1439.966489898041,None,0.8671,1440.4069339050911,None,,,,,,,DEC014,001,2022_Sep_08_1509,2-25_cond_decay_EYE-try,2021.2.3,120.19702185389359,
right,1.0,0.75,0,2,0,2,0,1,0,1,0,0,1,1,7,,,,,,,,,,,,,,,1s,1441.8401503032073,1442.8421316049062,1442.8330362509005,None,1443.8332961820997,1444.7338665481657,1443.8332961820997,1444.7338665481657,1444.725097337272,None,1444.725097337272,None,space,0.3214719397947192,1444.725097337272,None,0.8951,1445.1663948921487,None,,,,,,,DEC014,001,2022_Sep_08_1509,2-25_cond_decay_EYE-try,2021.2.3,120.19702185389359,
right,0.75,1.0,1,2,0,2,0,1,0,1,0,0,2,2,3,,,,,,,,,,,,,,,1s,1446.6075446009636,1447.6085194069892,1447.6005220222287,None,1448.6001689611003,1449.3747716862708,1448.6001689611003,1449.3747716862708,1449.3747716862708,None,1449.3747716862708,None,space,0.3277871459722519,1449.3747716862708,None,0.7748,1449.8247848772444,None,,,,,,,DEC014,001,2022_Sep_08_1509,2-25_cond_decay_EYE-try,2021.2.3,120.19702185389359,
left,0.75,1.0,0,2,0,2,0,1,0,1,0,0,3,3,0,,,,,,,,,,,,,,,1s,1451.2738708890975,1452.2749758050777,1452.2582081002183,None,1453.2586236889474,1453.4838278521784,1453.2586236889474,1453.4838278521784,1453.4838278521784,None,1453.4838278521784,None,space,0.3387433090247214,1453.4838278521784,None,0.2202,1453.9414427611046,None,,,,,,,DEC014,001,2022_Sep_08_1509,2-25_cond_decay_EYE-try,2021.2.3,120.19702185389359,
left,0.75,1.0,0,2,0,2,0,1,0,1,0,0,4,4,1,,,,,,,,,,,,,,,1s,1455.382268087007,1456.3834983720444,1456.3753366610035,None,1457.3749004723504,1458.3418647591025,1457.3749004723504,1458.3418647591025,1458.3418647591025,None,1458.3418647591025,None,space,0.3366373870521784,1458.3418647591025,None,0.9663,1458.807132222224,None,,,,,,,DEC014,001,2022_Sep_08_1509,2-25_cond_decay_EYE-try,2021.2.3,120.19702185389359,
left,0.75,1.0,0,2,0,2,0,1,0,1,0,0,5,5,4,,,,,,,,,,,,,,,1s,1460.2319841012359,1461.2333840271458,1461.2253493191674,None,1462.2253689919598,1463.1749056531116,1462.2253689919598,1463.1749056531116,1463.1749056531116,None,1463.1749056531116,None,space,0.36758021311834455,1463.1749056531116,None,0.9502,1463.665477131959,None,,,,,,,DEC014,001,2022_Sep_08_1509,2-25_cond_decay_EYE-try,2021.2.3,120.19702185389359,
right,1.0,0.75,0,2,0,2,0,1,0,1,0,0,6,6,8,,,,,,,,,,,,,,,1s,1465.1076979241334,1466.1086634891108,1466.1006396142766,None,1467.1005830471404,1468.0918106059544,1467.1005830471404,1468.0918106059544,1468.0840126168914,None,1468.0840126168914,None,space,0.4025438348762691,1468.0840126168914,None,0.9868,1468.6086751832627,None,,,,,,,DEC014,001,2022_Sep_08_1509,2-25_cond_decay_EYE-try,2021.2.3,120.19702185389359,
right,1.0,0.75,0,2,0,2,0,1,0,1,0,0,7,7,9,,,,,,,,,,,,,,,1s,1470.0493950401433,1471.050652469974,1471.0419693822041,None,1472.0420387350023,1472.842394080013,1472.0420387350023,1472.842394080013,1472.842394080013,None,1472.842394080013,None,space,0.9801809838972986,1472.842394080013,None,0.7976,1473.9421222242527,None,,,,,,,DEC014,001,2022_Sep_08_1509,2-25_cond_decay_EYE-try,2021.2.3,120.19702185389359,
left,1.0,0.75,1,2,0,2,0,1,0,1,0,0,8,8,5,,,,,,,,,,,,,,,1s,1475.3825899851508,1476.383527637925,1476.3755139010027,None,1477.375768521335,1477.9507689243183,1477.375768521335,1477.9507689243183,1477.9507689243183,None,1477.9507689243183,None,space,0.6238036970607936,1477.9507689243183,None,0.5741,1478.692734098062,None,,,,,,,DEC014,001,2022_Sep_08_1509,2-25_cond_decay_EYE-try,2021.2.3,120.19702185389359,
left,0.75,1.0,0,2,0,2,0,1,0,1,0,0,9,9,6,,,,,,,,,,,,,,,1s,1480.1327051799744,1481.1338796471246,1481.1259317011572,None,1482.1253551752307,1482.7757912920788,1482.1253551752307,1482.7757912920788,1482.7757912920788,None,1482.7757912920788,None,space,0.43877593986690044,1482.7757912920788,None,0.6493,1483.3340118862689,None,,,,,,,DEC014,001,2022_Sep_08_1509,2-25_cond_decay_EYE-try,2021.2.3,120.19702185389359,
left,0.75,1.0,0,2,0,2,0,1,0,1,0,1,0,10,4,,,,,,,,,,,,,,,1s,1484.7747166589834,1485.7753577451222,1485.7672084560618,None,1486.7670818539336,1487.1507463590242,1486.7670818539336,1487.1507463590242,1487.1507463590242,None,1487.1507463590242,None,space,0.4318051040172577,1487.1507463590242,None,0.3802,1487.700741081033,None,,,,,,,DEC014,001,2022_Sep_08_1509,2-25_cond_decay_EYE-try,2021.2.3,120.19702185389359,
right,1.0,0.75,0,2,0,2,0,1,0,1,0,1,1,11,7,,,,,,,,,,,,,,,1s,1489.1406903271563,1490.1421841899864,1490.1341434791684,None,1491.1340700583532,1491.5502511421219,1491.1340700583532,1491.5502511421219,1491.5421714782715,None,1491.5421714782715,None,space,0.4884049817919731,1491.5421714782715,None,0.4121,1492.1510273823515,None,,,,,,,DEC014,001,2022_Sep_08_1509,2-25_cond_decay_EYE-try,2021.2.3,120.19702185389359,
right,1.0,0.75,0,2,0,2,0,1,0,1,0,1,2,12,2,,,,,,,,,,,,,,,1s,1493.5910529312678,1494.5918486751616,1494.5837953123264,None,1495.584460338112,1496.501146464143,1495.584460338112,1496.501146464143,1496.4920821390115,None,1496.4920821390115,None,space,0.4024999300017953,1496.4920821390115,None,0.9123,1497.0160764940083,None,,,,,,,DEC014,001,2022_Sep_08_1509,2-25_cond_decay_EYE-try,2021.2.3,120.19702185389359,
left,1.0,0.75,1,2,0,2,0,1,0,1,0,1,3,13,5,,,,,,,,,,,,,,,1s,1498.4591596759856,1499.45900197234,1499.4509559641592,None,1500.4506927239709,1501.4338962431066,1500.4506927239709,1501.4338962431066,1501.4338962431066,None,1501.4338962431066,None,space,0.3566734385676682,1501.4338962431066,None,0.9804,1501.9161619562656,None,,,,,,,DEC014,001,2022_Sep_08_1509,2-25_cond_decay_EYE-try,2021.2.3,120.19702185389359,
right,0.75,1.0,1,2,0,2,0,1,0,1,0,1,4,14,3,,,,,,,,,,,,,,,1s,1503.3495245343074,1504.3507199781016,1504.3427560990676,None,1505.342594225891,1506.2345222900622,1505.342594225891,1506.2345222900622,1506.2345222900622,None,1506.2345222900622,None,space,0.37205205811187625,1506.2345222900622,None,0.8913,1506.733220251277,None,,,,,,,DEC014,001,2022_Sep_08_1509,2-25_cond_decay_EYE-try,2021.2.3,120.19702185389359,
right,1.0,0.75,0,2,0,2,0,1,0,1,0,1,5,15,9,,,,,,,,,,,,,,,1s,1508.1664397963323,1509.1673324941657,1509.1508072749712,None,1510.150799938012,1510.9595452928916,1510.150799938012,1510.9595452928916,1510.9595452928916,None,1510.9595452928916,None,space,0.47903321497142315,1510.9595452928916,None,0.8087,1511.5657942262478,None,,,,,,,DEC014,001,2022_Sep_08_1509,2-25_cond_decay_EYE-try,2021.2.3,120.19702185389359,
left,0.75,1.0,0,2,0,2,0,1,0,1,0,1,6,16,0,,,,,,,,,,,,,,,1s,1513.008291236125,1514.0096959453076,1514.000550759025,None,1514.992580879014,1515.9091227659956,1514.992580879014,1515.9091227659956,1515.9091227659956,None,1515.9091227659956,None,space,0.40939319087192416,1515.9091227659956,None,0.9098,1516.4412945052609,None,,,,,,,DEC014,001,2022_Sep_08_1509,2-25_cond_decay_EYE-try,2021.2.3,120.19702185389359,
left,0.75,1.0,0,2,0,2,0,1,0,1,0,1,7,17,1,,,,,,,,,,,,,,,1s,1517.883133046329,1518.8844885211438,1518.8676846469752,None,1519.8761664731428,1520.267605244182,1519.8761664731428,1520.267605244182,1520.2587605882436,None,1520.2587605882436,None,space,0.4358035051263869,1520.2587605882436,None,0.3889,1520.8172392612323,None,,,,,,,DEC014,001,2022_Sep_08_1509,2-25_cond_decay_EYE-try,2021.2.3,120.19702185389359,
left,0.75,1.0,0,2,0,2,0,1,0,1,0,1,8,18,6,,,,,,,,,,,,,,,1s,1522.257977485191,1523.2597265220247,1523.250717158895,None,1524.2514571789652,1524.7098645609803,1524.2514571789652,1524.7098645609803,1524.7098645609803,None,1524.7098645609803,None,space,0.3446452380158007,1524.7098645609803,None,0.4559,1525.1827301923186,None,,,,,,,DEC014,001,2022_Sep_08_1509,2-25_cond_decay_EYE-try,2021.2.3,120.19702185389359,
right,1.0,0.75,0,2,0,2,0,1,0,1,0,1,9,19,8,,,,,,,,,,,,,,,1s,1526.616049228236,1527.617349178996,1527.6093546273187,None,1528.609261289239,1529.5343439141288,1528.609261289239,1529.5343439141288,1529.5343439141288,None,1529.5343439141288,None,space,0.7282033399678767,1529.5343439141288,None,0.9235,1530.3919622912072,None,,,,,,,DEC014,001,2022_Sep_08_1509,2-25_cond_decay_EYE-try,2021.2.3,120.19702185389359,
,,,,2,0,2,0,1,0,1,0,,,,,,,,,,,,,,,,,,,,,,,,,,,,,,,,,,,,,,,,,,,,,DEC014,001,2022_Sep_08_1509,2-25_cond_decay_EYE-try,2021.2.3,120.19702185389359,
right,1.0,0.75,0,2,0,2,0,2,0,2,0,0,0,0,4,,,,,,,,,1531.291928306222,None,1531.291928306222,None,1531.291928306222,None,3s,1537.4834645260125,1538.4847182710655,1538.476614555344,None,1539.4760698792525,1541.6426243120804,1539.4760698792525,1541.6426243120804,1541.6348998090252,None,1541.6348998090252,None,space,0.4196736249141395,1541.6348998090252,None,2.1598,1542.1829969920218,None,,,,,,,DEC014,001,2022_Sep_08_1509,2-25_cond_decay_EYE-try,2021.2.3,120.19702185389359,
right,1.0,0.75,0,2,0,2,0,2,0,2,0,0,1,1,9,,,,,,,,,,,,,,,3s,1543.6168977003545,1544.6180293741636,1544.6090446729213,None,1545.609833769966,1547.7098789382726,1545.609833769966,1547.7098789382726,1547.7098789382726,None,1547.7098789382726,None,space,0.6727005983702838,1547.7098789382726,None,2.0988,1548.5083735869266,None,,,,,,,DEC014,001,2022_Sep_08_1509,2-25_cond_decay_EYE-try,2021.2.3,120.19702185389359,
right,1.0,0.75,0,2,0,2,0,2,0,2,0,0,2,2,7,,,,,,,,,,,,,,,3s,1549.9415970640257,1550.9429096509703,1550.9349098643288,None,1551.9347884920426,1553.7842028778978,1551.9347884920426,1553.7842028778978,1553.7760737310164,None,1553.7760737310164,None,space,0.5504354811273515,1553.7760737310164,None,1.8433,1554.449857247062,None,,,,,,,DEC014,001,2022_Sep_08_1509,2-25_cond_decay_EYE-try,2021.2.3,120.19702185389359,
left,1.0,0.75,1,2,0,2,0,2,0,2,0,0,3,3,1,,,,,,,,,,,,,,,3s,1555.8919411022216,1556.8929366189986,1556.8759015272371,None,1557.8845001440495,1559.275948475115,1557.8845001440495,1559.275948475115,1559.2681977069005,None,1559.2681977069005,None,None,,1559.2681977069005,None,1.3854,1560.38322078716,None,,,,,,,DEC014,001,2022_Sep_08_1509,2-25_cond_decay_EYE-try,2021.2.3,120.19702185389359,
left,0.75,1.0,0,2,0,2,0,2,0,2,0,0,4,4,8,,,,,,,,,,,,,,,3s,1561.8081189561635,1562.810190957971,1562.8011524789035,None,1563.8009579689242,1564.0848432392813,1563.8009579689242,1564.0848432392813,1564.0848432392813,None,1564.0848432392813,None,space,0.4177339202724397,1564.0848432392813,None,0.2794,1564.6339275809005,None,,,,,,,DEC014,001,2022_Sep_08_1509,2-25_cond_decay_EYE-try,2021.2.3,120.19702185389359,
left,0.75,1.0,0,2,0,2,0,2,0,2,0,0,5,5,0,,,,,,,,,,,,,,,3s,1566.0669499579817,1567.0679438002408,1567.0599136492237,None,1568.0599693250842,1570.7269609952345,1568.0599693250842,1570.7269609952345,1570.7180388919078,None,1570.7180388919078,None,space,0.4084797571413219,1570.7180388919078,None,2.6631,1571.250160403084,None,,,,,,,DEC014,001,2022_Sep_08_1509,2-25_cond_decay_EYE-try,2021.2.3,120.19702185389359,
left,0.75,1.0,0,2,0,2,0,2,0,2,0,0,6,6,5,,,,,,,,,,,,,,,3s,1572.6916805971414,1573.6931065460667,1573.6851806859486,None,1574.6844542161562,1575.7515096231364,1574.6844542161562,1575.7515096231364,1575.7515096231364,None,1575.7515096231364,None,space,0.3669987958855927,1575.7515096231364,None,1.0615,1576.2422522371635,None,,,,,,,DEC014,001,2022_Sep_08_1509,2-25_cond_decay_EYE-try,2021.2.3,120.19702185389359,
right,1.0,0.75,0,2,0,2,0,2,0,2,0,0,7,7,2,,,,,,,,,,,,,,,3s,1577.6768173533492,1578.6764152362011,1578.6683782632463,None,1579.6684078238904,1581.7185338889249,1579.6684078238904,1581.7185338889249,1581.7185338889249,None,1581.7185338889249,None,space,0.4240435902029276,1581.7185338889249,None,2.0502,1582.260097112041,None,,,,,,,DEC014,001,2022_Sep_08_1509,2-25_cond_decay_EYE-try,2021.2.3,120.19702185389359,
right,1.0,0.75,0,2,0,2,0,2,0,2,0,0,8,8,3,,,,,,,,,,,,,,,3s,1583.7002553408965,1584.7015349213034,1584.6937678372487,None,1585.6930939243175,1586.4929528739303,1585.6930939243175,1586.4929528739303,1586.4929528739303,None,1586.4929528739303,None,None,,1586.4929528739303,None,0.7971,1587.608474781271,None,,,,,,,DEC014,001,2022_Sep_08_1509,2-25_cond_decay_EYE-try,2021.2.3,120.19702185389359,
left,0.75,1.0,0,2,0,2,0,2,0,2,0,0,9,9,6,,,,,,,,,,,,,,,3s,1589.0423185219988,1590.0432888059877,1590.0353113412857,None,1591.0351859102957,1592.1597596611828,1591.0351859102957,1592.1597596611828,1592.1520564882085,None,1592.1520564882085,None,space,0.646533508785069,1592.1520564882085,None,1.1171,1592.9254829860292,None,,,,,,,DEC014,001,2022_Sep_08_1509,2-25_cond_decay_EYE-try,2021.2.3,120.19702185389359,
right,1.0,0.75,0,2,0,2,0,2,0,2,0,1,0,10,9,,,,,,,,,,,,,,,3s,1594.3589694681577,1595.3595643211156,1595.3431329531595,None,1596.3430712800473,1597.3936191140674,1596.3430712800473,1597.3936191140674,1597.3936191140674,None,1597.3936191140674,None,space,0.5569668188691139,1597.3936191140674,None,1.0505,1598.0689262971282,None,,,,,,,DEC014,001,2022_Sep_08_1509,2-25_cond_decay_EYE-try,2021.2.3,120.19702185389359,
left,0.75,1.0,0,2,0,2,0,2,0,2,0,1,1,11,0,,,,,,,,,,,,,,,3s,1599.5100790462457,1600.510106478352,1600.5019775601104,None,1601.5017750402912,1603.068187840283,1601.5017750402912,1603.068187840283,1603.0604528710246,1604.060115924105,1603.0604528710246,1604.060115924105,None,,1603.0604528710246,1604.060115924105,1.5627,1604.1839496009052,None,,,,,,,DEC014,001,2022_Sep_08_1509,2-25_cond_decay_EYE-try,2021.2.3,120.19702185389359,
right,0.75,1.0,1,2,0,2,0,2,0,2,0,1,2,12,4,,,,,,,,,,,,,,,3s,1605.6174863171764,1606.618200845085,1606.6101710009389,None,1607.6099526323378,1608.5771038690582,1607.6099526323378,1608.5771038690582,1608.56819446804,None,1608.56819446804,None,space,0.6064020339399576,1608.56819446804,None,0.9619,1609.3007375239395,None,,,,,,,DEC014,001,2022_Sep_08_1509,2-25_cond_decay_EYE-try,2021.2.3,120.19702185389359,
right,1.0,0.75,0,2,0,2,0,2,0,2,0,1,3,13,7,,,,,,,,,,,,,,,3s,1610.7254878398962,1611.7272356930189,1611.7181117301807,None,1612.7187741631642,1613.7183339321055,1612.7187741631642,1613.7183339321055,1613.7183339321055,None,1613.7183339321055,None,None,,1613.7183339321055,None,0.9962,1614.8341128122993,None,,,,,,,DEC014,001,2022_Sep_08_1509,2-25_cond_decay_EYE-try,2021.2.3,120.19702185389359,
right,1.0,0.75,0,2,0,2,0,2,0,2,0,1,4,14,3,,,,,,,,,,,,,,,3s,1616.2675244682468,1617.2690615099855,1617.2600726769306,None,1618.260473974049,1619.377469761297,1618.260473974049,1619.377469761297,1619.377469761297,None,1619.377469761297,None,space,0.2931288406252861,1619.377469761297,None,1.1154,1619.8007662040181,None,,,,,,,DEC014,001,2022_Sep_08_1509,2-25_cond_decay_EYE-try,2021.2.3,120.19702185389359,
right,1.0,0.75,0,2,0,2,0,2,0,2,0,1,5,15,2,,,,,,,,,,,,,,,3s,1621.2345222439617,1622.2351326360367,1622.2269903090782,None,1623.2266864101402,1623.7858041469008,1623.2266864101402,1623.7858041469008,1623.776931006927,1624.776516537182,1623.776931006927,1624.776516537182,None,,1623.776931006927,1624.776516537182,0.5529,1624.900779999327,None,,,,,,,DEC014,001,2022_Sep_08_1509,2-25_cond_decay_EYE-try,2021.2.3,120.19702185389359,
left,0.75,1.0,0,2,0,2,0,2,0,2,0,1,6,16,8,,,,,,,,,,,,,,,3s,1626.327359331306,1627.3268489590846,1627.3187646819279,None,1628.3186356821097,1629.2183731920086,1628.3186356821097,1629.2183731920086,1629.2183731920086,None,1629.2183731920086,None,space,0.31621964694932103,1629.2183731920086,None,0.8969,1629.6590973269194,None,,,,,,,DEC014,001,2022_Sep_08_1509,2-25_cond_decay_EYE-try,2021.2.3,120.19702185389359,
left,1.0,0.75,1,2,0,2,0,2,0,2,0,1,7,17,1,,,,,,,,,,,,,,,3s,1631.0843662391417,1632.0857764021493,1632.0769216190092,None,1633.0685935309157,1634.9939484931529,1633.0685935309157,1634.9939484931529,1634.9939484931529,1635.9936352102086,1634.9939484931529,1635.9936352102086,None,,1634.9939484931529,1635.9936352102086,1.9206,1636.117677457165,None,,,,,,,DEC014,001,2022_Sep_08_1509,2-25_cond_decay_EYE-try,2021.2.3,120.19702185389359,
left,0.75,1.0,0,2,0,2,0,2,0,2,0,1,8,18,6,,,,,,,,,,,,,,,3s,1637.542532288935,1638.5440074950457,1638.5350482380018,None,1639.5351078333333,1641.652509744279,1639.5351078333333,1641.652509744279,1641.652509744279,1642.6520038582385,1641.652509744279,1642.6520038582385,None,,1641.652509744279,1642.6520038582385,2.1181,1642.7678654580377,None,,,,,,,DEC014,001,2022_Sep_08_1509,2-25_cond_decay_EYE-try,2021.2.3,120.19702185389359,
left,0.75,1.0,0,2,0,2,0,2,0,2,0,1,9,19,5,,,,,,,,,,,,,,,3s,1644.2015822590329,1645.202163218055,1645.1940784272738,None,1646.193867397029,1646.7603625380434,1646.193867397029,1646.7603625380434,1646.752697383985,None,1646.752697383985,None,space,0.5338960839435458,1646.752697383985,None,0.5632,1647.4177031330764,None,,,,,,,DEC014,001,2022_Sep_08_1509,2-25_cond_decay_EYE-try,2021.2.3,120.19702185389359,
,,,,2,0,2,0,2,0,2,0,,,,,,,,,,,,,,,,,,,,,,,,,,,,,,,,,,,,,,,,,,,,,DEC014,001,2022_Sep_08_1509,2-25_cond_decay_EYE-try,2021.2.3,120.19702185389359,
left,0.75,1.0,0,2,0,2,0,3,0,3,0,0,0,0,2,,,,,,,,,1648.3173042801209,None,1648.3173042801209,None,1648.3173042801209,None,5s,1654.1108060833067,1655.1107338480651,1655.1027318253182,None,1656.1022764681838,1657.319102643989,1656.1022764681838,1657.319102643989,1657.319102643989,None,1657.319102643989,None,space,0.39144511660560966,1657.319102643989,None,1.2153,1657.8342161229812,None,,,,,,,DEC014,001,2022_Sep_08_1509,2-25_cond_decay_EYE-try,2021.2.3,120.19702185389359,
right,1.0,0.75,0,2,0,2,0,3,0,3,0,0,1,1,9,,,,,,,,,,,,,,,5s,1659.2681520790793,1660.2691145949066,1660.2612228160724,None,1661.2607616791502,1665.3528358642943,1661.2607616791502,1665.3528358642943,1665.3528358642943,None,1665.3528358642943,None,space,0.4537634588778019,1665.3528358642943,None,4.0923,1665.9345511789434,None,,,,,,,DEC014,001,2022_Sep_08_1509,2-25_cond_decay_EYE-try,2021.2.3,120.19702185389359,
left,0.75,1.0,0,2,0,2,0,3,0,3,0,0,2,2,7,,,,,,,,,,,,,,,5s,1667.3674280392006,1668.3696977002546,1668.3529401822016,None,1669.3529091998935,1674.1611225539818,1669.3529091998935,1674.1611225539818,1674.1611225539818,None,1674.1611225539818,None,space,0.2614044239744544,1674.1611225539818,None,4.8009,1674.5508431210183,None,,,,,,,DEC014,001,2022_Sep_08_1509,2-25_cond_decay_EYE-try,2021.2.3,120.19702185389359,
left,0.75,1.0,0,2,0,2,0,3,0,3,0,0,3,3,3,,,,,,,,,,,,,,,5s,1675.9841158031486,1676.9856790839694,1676.9776870743372,None,1677.9689317322336,1679.6273191119544,1677.9689317322336,1679.6273191119544,1679.6359104509465,None,1679.6359104509465,None,space,0.42668601917102933,1679.6359104509465,None,1.6596,1680.185673295986,None,,,,,,,DEC014,001,2022_Sep_08_1509,2-25_cond_decay_EYE-try,2021.2.3,120.19702185389359,
right,1.0,0.75,0,2,0,2,0,3,0,3,0,0,4,4,5,,,,,,,,,,,,,,,5s,1681.6261454960331,1682.627371719107,1682.6110159042291,None,1683.6108479932882,1687.4029094292782,1683.6108479932882,1687.4029094292782,1687.4029094292782,None,1687.4029094292782,None,space,0.3876902926713228,1687.4029094292782,None,3.789,1687.9176780963317,None,,,,,,,DEC014,001,2022_Sep_08_1509,2-25_cond_decay_EYE-try,2021.2.3,120.19702185389359,
right,1.0,0.75,0,2,0,2,0,3,0,3,0,0,5,5,4,,,,,,,,,,,,,,,5s,1689.3513880399987,1690.352547204122,1690.3445240412839,None,1691.3440834851936,1692.2026552092284,1691.3440834851936,1692.2026552092284,1692.2026552092284,None,1692.2026552092284,None,space,0.7319483365863562,1692.2026552092284,None,0.855,1693.0602157549001,None,,,,,,,DEC014,001,2022_Sep_08_1509,2-25_cond_decay_EYE-try,2021.2.3,120.19702185389359,
left,0.75,1.0,0,2,0,2,0,3,0,3,0,0,6,6,8,,,,,,,,,,,,,,,5s,1694.5018515950069,1695.502592917066,1695.4857319602743,None,1696.485829202924,1697.7108901962638,1696.485829202924,1697.7108901962638,1697.7108901962638,None,1697.7108901962638,None,space,0.4157060203142464,1697.7108901962638,None,1.2206,1698.2511514923535,None,,,,,,,DEC014,001,2022_Sep_08_1509,2-25_cond_decay_EYE-try,2021.2.3,120.19702185389359,
left,0.75,1.0,0,2,0,2,0,3,0,3,0,0,7,7,1,,,,,,,,,,,,,,,5s,1699.685091546271,1700.6860515750013,1700.6779550691135,None,1701.678151307162,1702.003060718067,1701.678151307162,1702.003060718067,1702.003060718067,None,1702.003060718067,None,space,0.4515451369807124,1702.003060718067,None,0.3203,1702.5769078303128,None,,,,,,,DEC014,001,2022_Sep_08_1509,2-25_cond_decay_EYE-try,2021.2.3,120.19702185389359,
left,1.0,0.75,1,2,0,2,0,3,0,3,0,0,8,8,6,,,,,,,,,,,,,,,5s,1704.0185168562457,1705.0196454762481,1705.0115941679105,None,1706.0112051870674,1707.0946172131225,1706.0112051870674,1707.0946172131225,1707.0946172131225,None,1707.0946172131225,None,space,0.5039853467606008,1707.0946172131225,None,1.0826,1707.7264015330002,None,,,,,,,DEC014,001,2022_Sep_08_1509,2-25_cond_decay_EYE-try,2021.2.3,120.19702185389359,
right,0.75,1.0,1,2,0,2,0,3,0,3,0,0,9,9,0,,,,,,,,,,,,,,,5s,1709.1687535210513,1710.1692734952085,1710.1527742561884,None,1711.1533908639103,1714.7700890041888,1711.1533908639103,1714.7700890041888,1714.7700890041888,None,1714.7700890041888,None,None,,1714.7700890041888,None,3.6139,1715.8854024629109,None,,,,,,,DEC014,001,2022_Sep_08_1509,2-25_cond_decay_EYE-try,2021.2.3,120.19702185389359,
left,0.75,1.0,0,2,0,2,0,3,0,3,0,1,0,10,3,,,,,,,,,,,,,,,5s,1717.318169197999,1718.3199931709096,1718.3119187359698,None,1719.3114178110845,1723.5285237971693,1719.3114178110845,1723.5285237971693,1723.5195657741278,None,1723.5195657741278,None,space,0.32703642221167684,1723.5195657741278,None,4.2124,1723.9767255489714,None,,,,,,,DEC014,001,2022_Sep_08_1509,2-25_cond_decay_EYE-try,2021.2.3,120.19702185389359,
right,1.0,0.75,0,2,0,2,0,3,0,3,0,1,1,11,9,,,,,,,,,,,,,,,5s,1725.4098811042495,1726.4115389259532,1726.4034808371216,None,1727.4034296250902,1730.8950651679188,1727.4034296250902,1730.8950651679188,1730.8863021172583,None,1730.8863021172583,None,space,0.4162756958976388,1730.8863021172583,None,3.4855,1731.4201059020124,None,,,,,,,DEC014,001,2022_Sep_08_1509,2-25_cond_decay_EYE-try,2021.2.3,120.19702185389359,
left,0.75,1.0,0,2,0,2,0,3,0,3,0,1,2,12,8,,,,,,,,,,,,,,,5s,1732.861778927967,1733.861471351236,1733.8534936099313,None,1734.8528003911488,1738.8116854801774,1734.8528003911488,1738.8116854801774,1738.8029196020216,1739.802997823339,1738.8029196020216,1739.802997823339,None,,1738.8029196020216,1739.802997823339,3.9519,1739.9272372131236,None,,,,,,,DEC014,001,2022_Sep_08_1509,2-25_cond_decay_EYE-try,2021.2.3,120.19702185389359,
left,1.0,0.75,1,2,0,2,0,3,0,3,0,1,3,13,6,,,,,,,,,,,,,,,5s,1741.3517434280366,1742.35327641014,1742.3452572389506,None,1743.34508675104,1747.919965240173,1743.34508675104,1747.919965240173,1747.9121968261898,1748.9113645190373,1747.9121968261898,1748.9113645190373,None,,1747.9121968261898,1748.9113645190373,4.5684,1749.0269326232374,None,,,,,,,DEC014,001,2022_Sep_08_1509,2-25_cond_decay_EYE-try,2021.2.3,120.19702185389359,
right,1.0,0.75,0,2,0,2,0,3,0,3,0,1,4,14,4,,,,,,,,,,,,,,,5s,1750.4687636410818,1751.469871551264,1751.4618306010962,None,1752.461269967258,1756.6036480860785,1752.461269967258,1756.6036480860785,1756.5948986099102,None,1756.5948986099102,None,space,0.40372063172981143,1756.5948986099102,None,4.1388,1757.1267347889952,None,,,,,,,DEC014,001,2022_Sep_08_1509,2-25_cond_decay_EYE-try,2021.2.3,120.19702185389359,
left,0.75,1.0,0,2,0,2,0,3,0,3,0,1,5,15,7,,,,,,,,,,,,,,,5s,1758.5609963303432,1759.5617408719845,1759.5536939832382,None,1760.5534007949755,1762.2036699340679,1760.5534007949755,1762.2036699340679,1762.194945014082,1763.1949337152764,1762.194945014082,1763.1949337152764,None,,1762.194945014082,1763.1949337152764,1.6472,1763.3188798851334,None,,,,,,,DEC014,001,2022_Sep_08_1509,2-25_cond_decay_EYE-try,2021.2.3,120.19702185389359,
