attn_cue,left_ob,right_ob,congruent,runs.thisRepN,runs.thisTrialN,runs.thisN,runs.thisIndex,blocks.thisRepN,blocks.thisTrialN,blocks.thisN,blocks.thisIndex,trials.thisRepN,trials.thisTrialN,trials.thisN,trials.thisIndex,welcome.started,welcome.stopped,text_2.started,text_2.stopped,init_key_resp.keys,init_key_resp.rt,init_key_resp.started,init_key_resp.stopped,text_3.started,text_3.stopped,text_4.started,text_4.stopped,text_5.started,text_5.stopped,block_num,texter.started,texter.stopped,cross.started,cross.stopped,left_star.started,left_star.stopped,right_star.started,right_star.stopped,left_2.started,left_2.stopped,right_2.started,right_2.stopped,key_resp.keys,key_resp.rt,key_resp.started,key_resp.stopped,Rand Tim,text.started,text.stopped,end.started,end.stopped,text_6.started,text_6.stopped,text_7.started,text_7.stopped,participant,session,date,expName,psychopyVersion,frameRate,
,,,,,,,,,,,,,,,,76.77320757880807,None,76.77320757880807,None,space,1.801413700915873,76.77320757880807,None,,,,,,,,,,,,,,,,,,,,,,,,,,,,,,,,,DEC022,001,2022_Dec_01_1809,2-25_cond_decay_EYE-try,2021.2.3,119.07289355383905,
left,0.75,1.0,0,0,0,0,0,0,0,0,0,0,0,0,0,,,,,,,,,78.59766125911847,None,78.59766125911847,None,78.59766125911847,None,5s,83.24774672091007,84.24847375508398,84.2325405748561,None,85.23261828999966,87.83262623194605,85.23261828999966,87.83262623194605,87.83262623194605,None,87.83262623194605,None,space,0.44195856619626284,87.83262623194605,None,2.5928,88.4145560101606,None,,,,,,,DEC022,001,2022_Dec_01_1809,2-25_cond_decay_EYE-try,2021.2.3,119.07289355383905,
right,1.0,0.75,0,0,0,0,0,0,0,0,0,0,1,1,3,,,,,,,,,,,,,,,5s,89.50648677395657,90.50687846215442,90.49844267917797,None,91.49951890390366,94.59922843892127,91.49951890390366,94.59922843892127,94.59922843892127,None,94.59922843892127,None,space,0.3587996787391603,94.59922843892127,None,3.0995,95.08121556090191,None,,,,,,,DEC022,001,2022_Dec_01_1809,2-25_cond_decay_EYE-try,2021.2.3,119.07289355383905,
right,1.0,0.75,0,0,0,0,0,0,0,0,0,0,2,2,5,,,,,,,,,,,,,,,5s,96.14792700111866,97.14853565208614,97.13255823915824,None,98.13244507275522,100.54969428386539,98.13244507275522,100.54969428386539,100.54969428386539,None,100.54969428386539,None,space,0.4936433220282197,100.54969428386539,None,2.415,101.1722870809026,None,,,,,,,DEC022,001,2022_Dec_01_1809,2-25_cond_decay_EYE-try,2021.2.3,119.07289355383905,
left,0.75,1.0,0,0,0,0,0,0,0,0,0,0,3,3,8,,,,,,,,,,,,,,,5s,102.26439572591335,103.26543991174549,103.25792219908908,None,104.25806188117713,105.86570320092142,104.25806188117713,105.86570320092142,105.85723705217242,None,105.85723705217242,None,space,0.5114645827561617,105.85723705217242,None,1.602,106.49759622011334,None,,,,,,,DEC022,001,2022_Dec_01_1809,2-25_cond_decay_EYE-try,2021.2.3,119.07289355383905,
left,1.0,0.75,1,0,0,0,0,0,0,0,0,0,4,4,9,,,,,,,,,,,,,,,5s,107.58903671009466,108.59047035174444,108.58248613914475,None,109.58203566912562,113.07383538875729,109.58203566912562,113.07383538875729,113.06617322890088,None,113.06617322890088,None,space,0.4332165620289743,113.06617322890088,None,3.4862,113.62471852498129,None,,,,,,,DEC022,001,2022_Dec_01_1809,2-25_cond_decay_EYE-try,2021.2.3,119.07289355383905,
left,0.75,1.0,0,0,0,0,0,0,0,0,0,0,5,5,6,,,,,,,,,,,,,,,5s,114.72345345513895,115.72461538109928,115.71614021575078,None,116.71630696672946,117.76627051411197,116.71630696672946,117.76627051411197,117.76627051411197,None,117.76627051411197,None,space,0.46895461110398173,117.76627051411197,None,1.0429,118.36491963081062,None,,,,,,,DEC022,001,2022_Dec_01_1809,2-25_cond_decay_EYE-try,2021.2.3,119.07289355383905,
right,0.75,1.0,1,0,0,0,0,0,0,0,0,0,6,6,1,,,,,,,,,,,,,,,5s,119.45611958717927,120.45794674288481,120.44908061809838,None,121.44907817803323,125.64139789203182,121.44907817803323,125.64139789203182,125.63289803313091,None,125.63289803313091,None,space,0.4668365209363401,125.63289803313091,None,4.1853,126.22310320381075,None,,,,,,,DEC022,001,2022_Dec_01_1809,2-25_cond_decay_EYE-try,2021.2.3,119.07289355383905,
left,0.75,1.0,0,0,0,0,0,0,0,0,0,0,7,7,2,,,,,,,,,,,,,,,5s,127.3228329657577,128.32409562496468,128.31615085713565,None,129.31651168689132,132.6246435251087,129.31651168689132,132.6246435251087,132.6246435251087,None,132.6246435251087,None,space,0.4025489240884781,132.6246435251087,None,3.3052,133.15701371105388,None,,,,,,,DEC022,001,2022_Dec_01_1809,2-25_cond_decay_EYE-try,2021.2.3,119.07289355383905,
right,1.0,0.75,0,0,0,0,0,0,0,0,0,0,8,8,7,,,,,,,,,,,,,,,5s,134.21654847776517,135.21662917686626,135.20751487277448,None,136.20764855109155,136.58300044201314,136.20764855109155,136.58300044201314,136.58300044201314,None,136.58300044201314,None,space,0.6274592550471425,136.58300044201314,None,0.3724,137.34048033272848,None,,,,,,,DEC022,001,2022_Dec_01_1809,2-25_cond_decay_EYE-try,2021.2.3,119.07289355383905,
right,1.0,0.75,0,0,0,0,0,0,0,0,0,0,9,9,4,,,,,,,,,,,,,,,5s,138.43158110184595,139.43305012909696,139.42489599296823,None,140.42480805516243,141.15805313689634,140.42480805516243,141.15805313689634,141.14953868603334,None,141.14953868603334,None,space,0.6189424591138959,141.14953868603334,None,0.7274,141.8979360340163,None,,,,,,,DEC022,001,2022_Dec_01_1809,2-25_cond_decay_EYE-try,2021.2.3,119.07289355383905,
left,0.75,1.0,0,0,0,0,0,0,0,0,0,1,0,10,6,,,,,,,,,,,,,,,5s,142.99029621714726,143.99078638106585,143.98242649575695,None,144.98294918891042,146.19909084495157,144.98294918891042,146.19909084495157,146.19909084495157,None,146.19909084495157,None,space,0.3775835479609668,146.19909084495157,None,1.2171,146.70619681105018,None,,,,,,,DEC022,001,2022_Dec_01_1809,2-25_cond_decay_EYE-try,2021.2.3,119.07289355383905,
left,0.75,1.0,0,0,0,0,0,0,0,0,0,1,1,11,2,,,,,,,,,,,,,,,5s,147.7986274957657,148.7999522550963,148.79171756608412,None,149.79085928900167,153.89929568115622,149.79085928900167,153.89929568115622,153.89929568115622,None,153.89929568115622,None,space,0.5699116098694503,153.89929568115622,None,4.1095,154.5979382218793,None,,,,,,,DEC022,001,2022_Dec_01_1809,2-25_cond_decay_EYE-try,2021.2.3,119.07289355383905,
right,0.75,1.0,1,0,0,0,0,0,0,0,0,1,2,12,1,,,,,,,,,,,,,,,5s,155.6900230818428,156.69091026717797,156.6834410740994,None,157.68257758114487,161.09106109384447,157.68257758114487,161.09106109384447,161.083592785988,None,161.083592785988,None,space,0.44176239613443613,161.083592785988,None,3.4039,161.6494271531701,None,,,,,,,DEC022,001,2022_Dec_01_1809,2-25_cond_decay_EYE-try,2021.2.3,119.07289355383905,
left,0.75,1.0,0,0,0,0,0,0,0,0,0,1,3,13,0,,,,,,,,,,,,,,,5s,162.74817036977038,163.74973262101412,163.74120346317068,None,164.74152866005898,166.79935744591057,164.74152866005898,166.79935744591057,166.79165259189904,None,166.79165259189904,None,space,0.34432790987193584,166.79165259189904,None,2.052,167.265746422112,None,,,,,,,DEC022,001,2022_Dec_01_1809,2-25_cond_decay_EYE-try,2021.2.3,119.07289355383905,
left,1.0,0.75,1,0,0,0,0,0,0,0,0,1,4,14,9,,,,,,,,,,,,,,,5s,168.3487428398803,169.3496990641579,169.34110297588632,None,170.34149314183742,172.59121435415,170.34149314183742,172.59121435415,172.5834738840349,None,172.5834738840349,None,space,0.4436524319462478,172.5834738840349,None,2.2448,173.15747586078942,None,,,,,,,DEC022,001,2022_Dec_01_1809,2-25_cond_decay_EYE-try,2021.2.3,119.07289355383905,
right,1.0,0.75,0,0,0,0,0,0,0,0,0,1,5,15,4,,,,,,,,,,,,,,,5s,174.21613041497767,175.21664271876216,175.20821381406859,None,176.20869096415117,178.46633588988334,176.20869096415117,178.46633588988334,178.4585649841465,None,178.4585649841465,None,space,0.5275464509613812,178.4585649841465,None,2.2528,179.11499797692522,None,,,,,,,DEC022,001,2022_Dec_01_1809,2-25_cond_decay_EYE-try,2021.2.3,119.07289355383905,
left,0.75,1.0,0,0,0,0,0,0,0,0,0,1,6,16,8,,,,,,,,,,,,,,,5s,180.20673245983198,181.20781178586185,181.19949945015833,None,182.19950131885707,186.8749971538782,182.19950131885707,186.8749971538782,186.8749971538782,None,186.8749971538782,None,space,0.3521967977285385,186.8749971538782,None,4.6736,187.35737192304805,None,,,,,,,DEC022,001,2022_Dec_01_1809,2-25_cond_decay_EYE-try,2021.2.3,119.07289355383905,
right,1.0,0.75,0,0,0,0,0,0,0,0,0,1,7,17,7,,,,,,,,,,,,,,,5s,188.44836012693122,189.450253570918,189.44166038697585,None,190.44123134110123,193.46717957686633,190.44123134110123,193.46717957686633,193.46717957686633,None,193.46717957686633,None,space,0.5017053470946848,193.46717957686633,None,3.0237,194.0921508348547,None,,,,,,,DEC022,001,2022_Dec_01_1809,2-25_cond_decay_EYE-try,2021.2.3,119.07289355383905,
right,1.0,0.75,0,0,0,0,0,0,0,0,0,1,8,18,3,,,,,,,,,,,,,,,5s,195.1900983871892,196.19133532373235,196.18335562292486,None,197.1833203821443,197.61700401594862,197.1833203821443,197.61700401594862,197.60831076605245,None,197.60831076605245,None,space,0.5857892041094601,197.60831076605245,None,0.4267,198.3233906980604,None,,,,,,,DEC022,001,2022_Dec_01_1809,2-25_cond_decay_EYE-try,2021.2.3,119.07289355383905,
right,1.0,0.75,0,0,0,0,0,0,0,0,0,1,9,19,5,,,,,,,,,,,,,,,5s,199.41512623708695,200.41734919976443,200.40882095182315,None,201.40876890113577,203.1666053631343,201.40876890113577,203.1666053631343,203.1666053631343,None,203.1666053631343,None,space,0.3943279762752354,203.1666053631343,None,1.7591,203.69093653094023,None,,,,,,,DEC022,001,2022_Dec_01_1809,2-25_cond_decay_EYE-try,2021.2.3,119.07289355383905,
,,,,0,0,0,0,0,0,0,0,,,,,,,,,,,,,,,,,,,,,,,,,,,,,,,,,,,,,,,,,,,,,DEC022,001,2022_Dec_01_1809,2-25_cond_decay_EYE-try,2021.2.3,119.07289355383905,
right,0.75,1.0,1,0,0,0,0,1,0,1,0,0,0,0,9,,,,,,,,,204.58197837276384,None,204.58197837276384,None,204.58197837276384,None,3s,206.5986798107624,207.60000265017152,207.5919067398645,None,208.59203271800652,209.33335901377723,208.59203271800652,209.33335901377723,209.32573917508125,None,209.32573917508125,None,space,0.5024774530902505,209.32573917508125,None,0.7385,209.95702312979847,None,,,,,,,DEC022,001,2022_Dec_01_1809,2-25_cond_decay_EYE-try,2021.2.3,119.07289355383905,
left,0.75,1.0,0,0,0,0,0,1,0,1,0,0,1,1,1,,,,,,,,,,,,,,,3s,211.04906842997298,212.05004889378324,212.04237898718566,None,213.04206018010154,216.02519996091723,213.04206018010154,216.02519996091723,216.01741856802255,None,216.01741856802255,None,space,0.3608422987163067,216.01741856802255,None,2.9825,216.50794076686725,None,,,,,,,DEC022,001,2022_Dec_01_1809,2-25_cond_decay_EYE-try,2021.2.3,119.07289355383905,
left,0.75,1.0,0,0,0,0,0,1,0,1,0,0,2,2,2,,,,,,,,,,,,,,,3s,217.59895907295868,218.6000467869453,218.59176059206948,None,219.5920193088241,222.40916509600356,219.5920193088241,222.40916509600356,222.40035942476243,None,222.40035942476243,None,space,0.47556257201358676,222.40035942476243,None,2.8145,223.00049511389807,None,,,,,,,DEC022,001,2022_Dec_01_1809,2-25_cond_decay_EYE-try,2021.2.3,119.07289355383905,
left,0.75,1.0,0,0,0,0,0,1,0,1,0,0,3,3,5,,,,,,,,,,,,,,,3s,224.09863349189982,225.10034578479826,225.09233370795846,None,226.09167955210432,227.19993008114398,226.09167955210432,227.19993008114398,227.19216127879918,228.19255621591583,227.19216127879918,228.19255621591583,None,,227.19216127879918,228.19255621591583,1.1038,228.33284315885976,None,,,,,,,DEC022,001,2022_Dec_01_1809,2-25_cond_decay_EYE-try,2021.2.3,119.07289355383905,
right,1.0,0.75,0,0,0,0,0,1,0,1,0,0,4,4,4,,,,,,,,,,,,,,,3s,229.4163434789516,230.41779756499454,230.40924690803513,None,231.40900430688635,232.41701535414904,231.40900430688635,232.41701535414904,232.41701535414904,None,232.41701535414904,None,space,0.4276425507850945,232.41701535414904,None,1.0037,232.97381640784442,None,,,,,,,DEC022,001,2022_Dec_01_1809,2-25_cond_decay_EYE-try,2021.2.3,119.07289355383905,
right,1.0,0.75,0,0,0,0,0,1,0,1,0,0,5,5,8,,,,,,,,,,,,,,,3s,234.065563891083,235.0668075531721,235.05864037107676,None,236.05893340706825,237.9168078438379,236.05893340706825,237.9168078438379,237.90912671387196,None,237.90912671387196,None,space,0.31017200788483024,237.90912671387196,None,1.8524,238.34933516010642,None,,,,,,,DEC022,001,2022_Dec_01_1809,2-25_cond_decay_EYE-try,2021.2.3,119.07289355383905,
right,1.0,0.75,0,0,0,0,0,1,0,1,0,0,6,6,0,,,,,,,,,,,,,,,3s,239.43433598987758,240.43435818096623,240.42608260689303,None,241.4255098751746,242.76678525004536,241.4255098751746,242.76678525004536,242.76678525004536,None,242.76678525004536,None,space,0.31803725892677903,242.76678525004536,None,1.3414,243.2158602438867,None,,,,,,,DEC022,001,2022_Dec_01_1809,2-25_cond_decay_EYE-try,2021.2.3,119.07289355383905,
right,0.75,1.0,1,0,0,0,0,1,0,1,0,0,7,7,3,,,,,,,,,,,,,,,3s,244.29902006918564,245.30103404587135,245.29274041578174,None,246.29181785695255,247.9009574688971,246.29181785695255,247.9009574688971,247.89235285576433,None,247.89235285576433,None,space,0.34400378400459886,247.89235285576433,None,1.6048,248.3658052640967,None,,,,,,,DEC022,001,2022_Dec_01_1809,2-25_cond_decay_EYE-try,2021.2.3,119.07289355383905,
right,1.0,0.75,0,0,0,0,0,1,0,1,0,0,8,8,7,,,,,,,,,,,,,,,3s,249.4574177567847,250.45879244618118,250.45057836687192,None,251.4503676877357,254.00037461984903,251.4503676877357,254.00037461984903,254.00037461984903,None,254.00037461984903,None,space,0.30139080295339227,254.00037461984903,None,2.55,254.42613463383168,None,,,,,,,DEC022,001,2022_Dec_01_1809,2-25_cond_decay_EYE-try,2021.2.3,119.07289355383905,
left,1.0,0.75,1,0,0,0,0,1,0,1,0,0,9,9,6,,,,,,,,,,,,,,,3s,255.5247010071762,256.5261293598451,256.50936157489195,None,257.50951506895944,258.259353436064,257.50951506895944,258.259353436064,258.259353436064,None,258.259353436064,None,None,,258.259353436064,None,0.7482,259.3833413007669,None,,,,,,,DEC022,001,2022_Dec_01_1809,2-25_cond_decay_EYE-try,2021.2.3,119.07289355383905,
left,1.0,0.75,1,0,0,0,0,1,0,1,0,1,0,10,6,,,,,,,,,,,,,,,3s,260.47436829982325,261.4756320337765,261.45961836585775,None,262.4594730739482,263.0423902031034,262.4594730739482,263.0423902031034,263.0423902031034,None,263.0423902031034,None,space,0.8697299733757973,263.0423902031034,None,0.582,264.0412243469618,None,,,,,,,DEC022,001,2022_Dec_01_1809,2-25_cond_decay_EYE-try,2021.2.3,119.07289355383905,
right,1.0,0.75,0,0,0,0,0,1,0,1,0,1,1,11,0,,,,,,,,,,,,,,,3s,265.1331541999243,266.13448267104104,266.12540146289393,None,267.12630548886955,268.75049480609596,267.12630548886955,268.75049480609596,268.7429475490935,None,268.7429475490935,None,space,0.35007064789533615,268.7429475490935,None,1.6199,269.21721481578425,None,,,,,,,DEC022,001,2022_Dec_01_1809,2-25_cond_decay_EYE-try,2021.2.3,119.07289355383905,
right,1.0,0.75,0,0,0,0,0,1,0,1,0,1,2,12,8,,,,,,,,,,,,,,,3s,270.30792197585106,271.3095526439138,271.3014229121618,None,272.30095218587667,273.3756712959148,272.30095218587667,273.3756712959148,273.3678376660682,None,273.3678376660682,None,space,0.5337944542989135,273.3678376660682,None,1.0683,274.033188407775,None,,,,,,,DEC022,001,2022_Dec_01_1809,2-25_cond_decay_EYE-try,2021.2.3,119.07289355383905,
right,1.0,0.75,0,0,0,0,0,1,0,1,0,1,3,13,4,,,,,,,,,,,,,,,3s,275.1167104858905,276.11753769917414,276.10948223713785,None,277.1090927137993,279.24254789110273,277.1090927137993,279.24254789110273,279.24254789110273,None,279.24254789110273,None,space,0.3921138499863446,279.24254789110273,None,2.1317,279.766415045131,None,,,,,,,DEC022,001,2022_Dec_01_1809,2-25_cond_decay_EYE-try,2021.2.3,119.07289355383905,
left,0.75,1.0,0,0,0,0,0,1,0,1,0,1,4,14,1,,,,,,,,,,,,,,,3s,280.8584965239279,281.85938167292625,281.84290920896456,None,282.8423185511492,284.2599800340831,282.8423185511492,284.2599800340831,284.2599800340831,None,284.2599800340831,None,space,0.3190627722069621,284.2599800340831,None,1.4114,284.7084176829085,None,,,,,,,DEC022,001,2022_Dec_01_1809,2-25_cond_decay_EYE-try,2021.2.3,119.07289355383905,
left,0.75,1.0,0,0,0,0,0,1,0,1,0,1,5,15,5,,,,,,,,,,,,,,,3s,285.79987580887973,286.8013819530606,286.79233644297346,None,287.7927994639613,290.2178557408042,287.7927994639613,290.2178557408042,290.2178557408042,None,290.2178557408042,None,space,0.3028498156927526,290.2178557408042,None,2.4226,290.6502823587507,None,,,,,,,DEC022,001,2022_Dec_01_1809,2-25_cond_decay_EYE-try,2021.2.3,119.07289355383905,
right,1.0,0.75,0,0,0,0,0,1,0,1,0,1,6,16,7,,,,,,,,,,,,,,,3s,291.7502610501833,292.7511228239164,292.7430285997689,None,293.74241816578433,294.5429212949239,293.74241816578433,294.5429212949239,294.5429212949239,None,294.5429212949239,None,None,,294.5429212949239,None,0.8007,295.6666307868436,None,,,,,,,DEC022,001,2022_Dec_01_1809,2-25_cond_decay_EYE-try,2021.2.3,119.07289355383905,
right,0.75,1.0,1,0,0,0,0,1,0,1,0,1,7,17,3,,,,,,,,,,,,,,,3s,296.75041407113895,297.7512645670213,297.74311494780704,None,298.74271315010265,300.6262866030447,298.74271315010265,300.6262866030447,300.6262866030447,None,300.6262866030447,None,space,0.41732227709144354,300.6262866030447,None,1.8842,301.17485836008564,None,,,,,,,DEC022,001,2022_Dec_01_1809,2-25_cond_decay_EYE-try,2021.2.3,119.07289355383905,
left,0.75,1.0,0,0,0,0,0,1,0,1,0,1,8,18,9,,,,,,,,,,,,,,,3s,302.2671587630175,303.26811940874904,303.25135568901896,None,304.2592044179328,306.95981929590926,304.2592044179328,306.95981929590926,306.951889521908,None,306.951889521908,None,space,0.38498824881389737,306.951889521908,None,2.6947,307.46726385783404,None,,,,,,,DEC022,001,2022_Dec_01_1809,2-25_cond_decay_EYE-try,2021.2.3,119.07289355383905,
left,0.75,1.0,0,0,0,0,0,1,0,1,0,1,9,19,2,,,,,,,,,,,,,,,3s,308.55856653675437,309.56003246689215,309.55150171974674,None,310.5509420898743,312.4100146717392,310.5509420898743,312.4100146717392,312.4013175200671,None,312.4013175200671,None,space,0.38593369629234076,312.4013175200671,None,1.8535,312.91640160419047,None,,,,,,,DEC022,001,2022_Dec_01_1809,2-25_cond_decay_EYE-try,2021.2.3,119.07289355383905,
,,,,0,0,0,0,1,0,1,0,,,,,,,,,,,,,,,,,,,,,,,,,,,,,,,,,,,,,,,,,,,,,DEC022,001,2022_Dec_01_1809,2-25_cond_decay_EYE-try,2021.2.3,119.07289355383905,
left,0.75,1.0,0,0,0,0,0,2,0,2,0,0,0,0,1,,,,,,,,,313.80798113904893,None,313.80798113904893,None,313.80798113904893,None,1s,318.09982005273923,319.10135646304116,319.09290521079674,None,320.09306346904486,320.39333959901705,320.09306346904486,320.39333959901705,320.39333959901705,None,320.39333959901705,None,space,0.32743270322680473,320.39333959901705,None,0.2997,320.85078709293157,None,,,,,,,DEC022,001,2022_Dec_01_1809,2-25_cond_decay_EYE-try,2021.2.3,119.07289355383905,
left,0.75,1.0,0,0,0,0,0,2,0,2,0,0,1,1,8,,,,,,,,,,,,,,,1s,321.93413098482415,322.93478219909593,322.9265164867975,None,323.9261160697788,324.15198182407767,323.9261160697788,324.15198182407767,324.15198182407767,None,324.15198182407767,None,space,0.32460400415584445,324.15198182407767,None,0.2224,324.60052027506754,None,,,,,,,DEC022,001,2022_Dec_01_1809,2-25_cond_decay_EYE-try,2021.2.3,119.07289355383905,
left,0.75,1.0,0,0,0,0,0,2,0,2,0,0,2,2,0,,,,,,,,,,,,,,,1s,325.70066994288936,326.70109958481044,326.6930392868817,None,327.69381204014644,327.9101086128503,327.69381204014644,327.9101086128503,327.90212907409295,None,327.90212907409295,None,space,0.35800924617797136,327.90212907409295,None,0.2097,328.3854172700085,None,,,,,,,DEC022,001,2022_Dec_01_1809,2-25_cond_decay_EYE-try,2021.2.3,119.07289355383905,
right,1.0,0.75,0,0,0,0,0,2,0,2,0,0,3,3,5,,,,,,,,,,,,,,,1s,329.4839757680893,330.48474185494706,330.47676723683253,None,331.47663589473814,331.6852418729104,331.47663589473814,331.6852418729104,331.6763232378289,None,331.6763232378289,None,space,0.31092450907453895,331.6763232378289,None,0.205,332.1168449129909,None,,,,,,,DEC022,001,2022_Dec_01_1809,2-25_cond_decay_EYE-try,2021.2.3,119.07289355383905,
left,1.0,0.75,1,0,0,0,0,2,0,2,0,0,4,4,6,,,,,,,,,,,,,,,1s,333.2092511761002,334.2102145701647,334.20192465977743,None,335.20184523705393,336.1094502019696,335.20184523705393,336.1094502019696,336.1017443528399,None,336.1017443528399,None,space,0.3027716772630811,336.1017443528399,None,0.9017,336.534164280165,None,,,,,,,DEC022,001,2022_Dec_01_1809,2-25_cond_decay_EYE-try,2021.2.3,119.07289355383905,
right,1.0,0.75,0,0,0,0,0,2,0,2,0,0,5,5,2,,,,,,,,,,,,,,,1s,337.6256302241236,338.6272518201731,338.6185883251019,None,339.6181428860873,339.86877742083743,339.6181428860873,339.86877742083743,339.86877742083743,None,339.86877742083743,None,space,0.3590024239383638,339.86877742083743,None,0.251,340.35878367116675,None,,,,,,,DEC022,001,2022_Dec_01_1809,2-25_cond_decay_EYE-try,2021.2.3,119.07289355383905,
left,0.75,1.0,0,0,0,0,0,2,0,2,0,0,6,6,3,,,,,,,,,,,,,,,1s,341.4501697430387,342.4517467347905,342.4435069831088,None,343.4436105568893,343.60181505279616,343.4436105568893,343.60181505279616,343.59332557208836,None,343.59332557208836,None,space,0.41741267079487443,343.59332557208836,None,0.152,344.1425610971637,None,,,,,,,DEC022,001,2022_Dec_01_1809,2-25_cond_decay_EYE-try,2021.2.3,119.07289355383905,
right,1.0,0.75,0,0,0,0,0,2,0,2,0,0,7,7,7,,,,,,,,,,,,,,,1s,345.2335496977903,346.2347455387935,346.2265992490575,None,347.227197276894,348.2018586327322,347.227197276894,348.2018586327322,348.1932954811491,None,348.1932954811491,None,space,0.3113705008290708,348.1932954811491,None,0.9687,348.6334890918806,None,,,,,,,DEC022,001,2022_Dec_01_1809,2-25_cond_decay_EYE-try,2021.2.3,119.07289355383905,
right,1.0,0.75,0,0,0,0,0,2,0,2,0,0,8,8,9,,,,,,,,,,,,,,,1s,349.72595492517576,350.7266766647808,350.7182518430054,None,351.71847569709644,352.5522780478932,351.71847569709644,352.5522780478932,352.5522780478932,None,352.5522780478932,None,space,0.45801629312336445,352.5522780478932,None,0.8336,353.1340314471163,None,,,,,,,DEC022,001,2022_Dec_01_1809,2-25_cond_decay_EYE-try,2021.2.3,119.07289355383905,
left,0.75,1.0,0,0,0,0,0,2,0,2,0,0,9,9,4,,,,,,,,,,,,,,,1s,354.23584251478314,355.2353650489822,355.22701747808605,None,356.2263384619728,356.9188676099293,356.2263384619728,356.9188676099293,356.9188676099293,None,356.9188676099293,None,space,0.3254498136229813,356.9188676099293,None,0.6914,357.3683449900709,None,,,,,,,DEC022,001,2022_Dec_01_1809,2-25_cond_decay_EYE-try,2021.2.3,119.07289355383905,
left,0.75,1.0,0,0,0,0,0,2,0,2,0,1,0,10,0,,,,,,,,,,,,,,,1s,358.4671104880981,359.468876152765,359.4598304471001,None,360.4606766900979,360.75993765704334,360.4606766900979,360.75993765704334,360.75993765704334,None,360.75993765704334,None,space,0.35300075309351087,360.75993765704334,None,0.2989,361.24228375405073,None,,,,,,,DEC022,001,2022_Dec_01_1809,2-25_cond_decay_EYE-try,2021.2.3,119.07289355383905,
right,1.0,0.75,0,0,0,0,0,2,0,2,0,1,1,11,2,,,,,,,,,,,,,,,1s,362.33400052273646,363.3354578050785,363.3274118248373,None,364.32745626801625,364.7937977700494,364.32745626801625,364.7937977700494,364.7937977700494,None,364.7937977700494,None,space,0.32702006213366985,364.7937977700494,None,0.467,365.2506959917955,None,,,,,,,DEC022,001,2022_Dec_01_1809,2-25_cond_decay_EYE-try,2021.2.3,119.07289355383905,
right,1.0,0.75,0,0,0,0,0,2,0,2,0,1,2,12,5,,,,,,,,,,,,,,,1s,366.33569123689085,367.33544913074,367.32734559010714,None,368.3273709770292,368.67692204983905,368.3273709770292,368.67692204983905,368.67692204983905,None,368.67692204983905,None,space,0.33376549696549773,368.67692204983905,None,0.3502,369.13578373612836,None,,,,,,,DEC022,001,2022_Dec_01_1809,2-25_cond_decay_EYE-try,2021.2.3,119.07289355383905,
left,0.75,1.0,0,0,0,0,0,2,0,2,0,1,3,13,4,,,,,,,,,,,,,,,1s,370.2341628521681,371.2357121617533,371.2274346500635,None,372.22725096484646,373.1437313789502,372.22725096484646,373.1437313789502,373.1437313789502,None,373.1437313789502,None,space,0.30857593985274434,373.1437313789502,None,0.9151,373.57704371912405,None,,,,,,,DEC022,001,2022_Dec_01_1809,2-25_cond_decay_EYE-try,2021.2.3,119.07289355383905,
left,0.75,1.0,0,0,0,0,0,2,0,2,0,1,4,14,8,,,,,,,,,,,,,,,1s,374.6751946178265,375.67720764596015,375.66005023615435,None,376.6602127440274,376.91869682399556,376.6602127440274,376.91869682399556,376.91869682399556,None,376.91869682399556,None,space,0.34256427688524127,376.91869682399556,None,0.255,377.3856545970775,None,,,,,,,DEC022,001,2022_Dec_01_1809,2-25_cond_decay_EYE-try,2021.2.3,119.07289355383905,
left,0.75,1.0,0,0,0,0,0,2,0,2,0,1,5,15,3,,,,,,,,,,,,,,,1s,378.48360195197165,379.48531778203323,379.4771760147996,None,380.4769388991408,381.1939435079694,380.4769388991408,381.1939435079694,381.1939435079694,None,381.1939435079694,None,space,0.30255511589348316,381.1939435079694,None,0.7129,381.62587248906493,None,,,,,,,DEC022,001,2022_Dec_01_1809,2-25_cond_decay_EYE-try,2021.2.3,119.07289355383905,
right,0.75,1.0,1,0,0,0,0,2,0,2,0,1,6,16,1,,,,,,,,,,,,,,,1s,382.7179773077369,383.71917062206194,383.7100731348619,None,384.7100858800113,385.09411043394357,384.7100858800113,385.09411043394357,385.09411043394357,None,385.09411043394357,None,space,0.3194263959303498,385.09411043394357,None,0.3777,385.5423845327459,None,,,,,,,DEC022,001,2022_Dec_01_1809,2-25_cond_decay_EYE-try,2021.2.3,119.07289355383905,
right,1.0,0.75,0,0,0,0,0,2,0,2,0,1,7,17,7,,,,,,,,,,,,,,,1s,386.6273343670182,387.6274893237278,387.61912712594494,None,388.6184480898082,389.21892164088786,388.6184480898082,389.21892164088786,389.21892164088786,None,389.21892164088786,None,space,0.3110648673027754,389.21892164088786,None,0.5988,389.65964813297614,None,,,,,,,DEC022,001,2022_Dec_01_1809,2-25_cond_decay_EYE-try,2021.2.3,119.07289355383905,
left,1.0,0.75,1,0,0,0,0,2,0,2,0,1,8,18,6,,,,,,,,,,,,,,,1s,390.7505035130307,391.7520215837285,391.7438271269202,None,392.74431317998096,393.3938191807829,392.74431317998096,393.3938191807829,393.3938191807829,None,393.3938191807829,None,space,0.33624098682776093,393.3938191807829,None,0.6484,393.8590653487481,None,,,,,,,DEC022,001,2022_Dec_01_1809,2-25_cond_decay_EYE-try,2021.2.3,119.07289355383905,
right,1.0,0.75,0,0,0,0,0,2,0,2,0,1,9,19,9,,,,,,,,,,,,,,,1s,394.95082912780344,395.9520873040892,395.9441165891476,None,396.9438684550114,397.5775964898057,396.9438684550114,397.5775964898057,397.5775964898057,None,397.5775964898057,None,space,0.3023870186880231,397.5775964898057,None,0.632,398.009825555142,None,,,,,,,DEC022,001,2022_Dec_01_1809,2-25_cond_decay_EYE-try,2021.2.3,119.07289355383905,
,,,,0,0,0,0,2,0,2,0,,,,,,,,,,,,,,,,,,,,,,,,,,,,,,,,,,,,,,,,,,,,,DEC022,001,2022_Dec_01_1809,2-25_cond_decay_EYE-try,2021.2.3,119.07289355383905,
right,1.0,0.75,0,0,0,0,0,3,0,3,0,0,0,0,6,,,,,,,,,398.90121311182156,None,398.90121311182156,None,398.90121311182156,None,10s,400.55101388599724,401.5522087258287,401.536175257992,None,402.53571692993864,406.9939693529159,402.53571692993864,406.9939693529159,406.9939693529159,None,406.9939693529159,None,space,0.4427882367745042,406.9939693529159,None,4.4546,407.5673828679137,None,,,,,,,DEC022,001,2022_Dec_01_1809,2-25_cond_decay_EYE-try,2021.2.3,119.07289355383905,
left,0.75,1.0,0,0,0,0,0,3,0,3,0,0,1,1,5,,,,,,,,,,,,,,,10s,408.65946326684207,409.6609975299798,409.6530392947607,None,410.65214811405167,416.86059304280207,410.65214811405167,416.86059304280207,416.85206485399976,None,416.85206485399976,None,space,0.4173536510206759,416.85206485399976,None,6.2018,417.3929725070484,None,,,,,,,DEC022,001,2022_Dec_01_1809,2-25_cond_decay_EYE-try,2021.2.3,119.07289355383905,
left,1.0,0.75,1,0,0,0,0,3,0,3,0,0,2,2,9,,,,,,,,,,,,,,,10s,418.4931844128296,419.49482065299526,419.48631951212883,None,420.4857790879905,429.2111510508694,420.4857790879905,429.2111510508694,429.2111510508694,None,429.2111510508694,None,None,,429.2111510508694,None,8.7204,430.3345734211616,None,,,,,,,DEC022,001,2022_Dec_01_1809,2-25_cond_decay_EYE-try,2021.2.3,119.07289355383905,
left,0.75,1.0,0,0,0,0,0,3,0,3,0,0,3,3,7,,,,,,,,,,,,,,,10s,431.4178031841293,432.4197147008963,432.4114242801443,None,433.41148413717747,440.5942306891084,433.41148413717747,440.5942306891084,440.58631590381265,None,440.58631590381265,None,space,0.38574719289317727,440.58631590381265,None,7.1823,441.1015441850759,None,,,,,,,DEC022,001,2022_Dec_01_1809,2-25_cond_decay_EYE-try,2021.2.3,119.07289355383905,
right,1.0,0.75,0,0,0,0,0,3,0,3,0,0,4,4,0,,,,,,,,,,,,,,,10s,442.1934721497819,443.194443681743,443.1862742109224,None,444.18643132876605,446.4949311357923,444.18643132876605,446.4949311357923,446.48622650373727,None,446.48622650373727,None,space,0.551046836655587,446.48622650373727,None,2.3043,447.16165903396904,None,,,,,,,DEC022,001,2022_Dec_01_1809,2-25_cond_decay_EYE-try,2021.2.3,119.07289355383905,
left,0.75,1.0,0,0,0,0,0,3,0,3,0,0,5,5,8,,,,,,,,,,,,,,,10s,448.26020362693816,449.26144366990775,449.2531865797937,None,450.2533909850754,458.20269194990396,450.2533909850754,458.20269194990396,458.20269194990396,None,458.20269194990396,None,None,,458.20269194990396,None,7.9453,459.32655124599114,None,,,,,,,DEC022,001,2022_Dec_01_1809,2-25_cond_decay_EYE-try,2021.2.3,119.07289355383905,
right,0.75,1.0,1,0,0,0,0,3,0,3,0,0,6,6,4,,,,,,,,,,,,,,,10s,460.4179613380693,461.41917761415243,461.4117617867887,None,462.41168515989557,471.32800260186195,462.41168515989557,471.32800260186195,471.32800260186195,None,471.32800260186195,None,space,0.9610150069929659,471.32800260186195,None,8.9148,472.4190435791388,None,,,,,,,DEC022,001,2022_Dec_01_1809,2-25_cond_decay_EYE-try,2021.2.3,119.07289355383905,
right,1.0,0.75,0,0,0,0,0,3,0,3,0,0,7,7,2,,,,,,,,,,,,,,,10s,473.50352249480784,474.50330018484965,474.4949960038066,None,475.4950414188206,482.5278330971487,475.4950414188206,482.5278330971487,482.5201580817811,None,482.5201580817811,None,space,0.8023381298407912,482.5201580817811,None,7.0281,483.4516386198811,None,,,,,,,DEC022,001,2022_Dec_01_1809,2-25_cond_decay_EYE-try,2021.2.3,119.07289355383905,
right,1.0,0.75,0,0,0,0,0,3,0,3,0,0,8,8,1,,,,,,,,,,,,,,,10s,484.5436525931582,485.5450504561886,485.5367014030926,None,486.53676332486793,493.5950257428922,486.53676332486793,493.5950257428922,493.5864705988206,None,493.5864705988206,None,space,0.45068484218791127,493.5864705988206,None,7.0535,494.16071426682174,None,,,,,,,DEC022,001,2022_Dec_01_1809,2-25_cond_decay_EYE-try,2021.2.3,119.07289355383905,
right,1.0,0.75,0,0,0,0,0,3,0,3,0,0,9,9,3,,,,,,,,,,,,,,,10s,495.25237167300656,496.25307408813387,496.2451674710028,None,497.24473775783554,501.8198404167779,497.24473775783554,501.8198404167779,501.8198404167779,None,501.8198404167779,None,space,0.4609372918494046,501.8198404167779,None,4.5737,502.4103314927779,None,,,,,,,DEC022,001,2022_Dec_01_1809,2-25_cond_decay_EYE-try,2021.2.3,119.07289355383905,
left,0.75,1.0,0,0,0,0,0,3,0,3,0,1,0,10,8,,,,,,,,,,,,,,,10s,503.5024440228008,504.5035803411156,504.4951942428015,None,505.49554431578144,507.92855665506795,505.49554431578144,507.92855665506795,507.9198506940156,None,507.9198506940156,None,space,0.6193370120599866,507.9198506940156,None,2.4304,508.6687664971687,None,,,,,,,DEC022,001,2022_Dec_01_1809,2-25_cond_decay_EYE-try,2021.2.3,119.07289355383905,
right,1.0,0.75,0,0,0,0,0,3,0,3,0,1,1,11,1,,,,,,,,,,,,,,,10s,509.7604285911657,510.76238865591586,510.75371707975864,None,511.7532738670707,514.6368764899671,511.7532738670707,514.6368764899671,514.6282793870196,None,514.6282793870196,None,space,0.5281379232183099,514.6282793870196,None,2.8798,515.2861646190286,None,,,,,,,DEC022,001,2022_Dec_01_1809,2-25_cond_decay_EYE-try,2021.2.3,119.07289355383905,
left,1.0,0.75,1,0,0,0,0,3,0,3,0,1,2,12,9,,,,,,,,,,,,,,,10s,516.3777155247517,517.3782618627883,517.3707861248404,None,518.3701375178061,528.0875331861898,518.3701375178061,528.0875331861898,528.0788724320009,None,528.0788724320009,None,space,0.5668491274118423,528.0788724320009,None,9.7147,528.7707365201786,None,,,,,,,DEC022,001,2022_Dec_01_1809,2-25_cond_decay_EYE-try,2021.2.3,119.07289355383905,
left,0.75,1.0,0,0,0,0,0,3,0,3,0,1,3,13,5,,,,,,,,,,,,,,,10s,529.8357502021827,530.8374237939715,530.8284844029695,None,531.8289911961183,534.154259886127,531.8289911961183,534.154259886127,534.1454615518451,None,534.1454615518451,None,space,0.5005891993641853,534.1454615518451,None,2.3217,534.7700483389199,None,,,,,,,DEC022,001,2022_Dec_01_1809,2-25_cond_decay_EYE-try,2021.2.3,119.07289355383905,
right,0.75,1.0,1,0,0,0,0,3,0,3,0,1,4,14,4,,,,,,,,,,,,,,,10s,535.8690909831785,536.8705500587821,536.8625357639976,None,537.8619476249442,543.7791976667941,537.8619476249442,543.7791976667941,543.7791976667941,None,543.7791976667941,None,space,0.43391232332214713,543.7791976667941,None,5.9171,544.3367084129713,None,,,,,,,DEC022,001,2022_Dec_01_1809,2-25_cond_decay_EYE-try,2021.2.3,119.07289355383905,
left,0.75,1.0,0,0,0,0,0,3,0,3,0,1,5,15,7,,,,,,,,,,,,,,,10s,545.4364149780013,546.4373944280669,546.4291157098487,None,547.428525777068,555.0785987959243,547.428525777068,555.0785987959243,555.0785987959243,None,555.0785987959243,None,space,0.019690492656081915,555.0785987959243,None,7.6495,555.2274356479757,None,,,,,,,DEC022,001,2022_Dec_01_1809,2-25_cond_decay_EYE-try,2021.2.3,119.07289355383905,
right,1.0,0.75,0,0,0,0,0,3,0,3,0,1,6,16,0,,,,,,,,,,,,,,,10s,556.3192070648074,557.3210579291917,557.3128134231083,None,558.3121502669528,565.412015567068,558.3121502669528,565.412015567068,565.4043162767775,None,565.4043162767775,None,space,0.6278760829009116,565.4043162767775,None,7.0946,566.1610983139835,None,,,,,,,DEC022,001,2022_Dec_01_1809,2-25_cond_decay_EYE-try,2021.2.3,119.07289355383905,
left,0.75,1.0,0,0,0,0,0,3,0,3,0,1,7,17,6,,,,,,,,,,,,,,,10s,567.2213430129923,568.2210025289096,568.2120096869767,None,569.2124379989691,570.5046839541756,569.2124379989691,570.5046839541756,570.5046839541756,None,570.5046839541756,None,space,0.5412108059972525,570.5046839541756,None,1.2905,571.1700264331885,None,,,,,,,DEC022,001,2022_Dec_01_1809,2-25_cond_decay_EYE-try,2021.2.3,119.07289355383905,
right,1.0,0.75,0,0,0,0,0,3,0,3,0,1,8,18,3,,,,,,,,,,,,,,,10s,572.270074820146,573.2710187640041,573.2626196127385,None,574.262074302882,574.5213451399468,574.262074302882,574.5213451399468,574.5127760958858,None,574.5127760958858,None,space,0.7273208601400256,574.5127760958858,None,0.2557,575.3702351679094,None,,,,,,,DEC022,001,2022_Dec_01_1809,2-25_cond_decay_EYE-try,2021.2.3,119.07289355383905,
right,1.0,0.75,0,0,0,0,0,3,0,3,0,1,9,19,2,,,,,,,,,,,,,,,10s,576.4538521668874,577.454101099167,577.4460638891906,None,578.4454862801358,587.0878079328686,578.4454862801358,587.0878079328686,587.0878079328686,None,587.0878079328686,None,space,0.38636724278330803,587.0878079328686,None,8.6427,587.6028096210212,None,,,,,,,DEC022,001,2022_Dec_01_1809,2-25_cond_decay_EYE-try,2021.2.3,119.07289355383905,
,,,,0,0,0,0,3,0,3,0,,,,,,,,,,,,,,,,,,,,,,,,,,,,,,,,,,,,,,,,,,,,,DEC022,001,2022_Dec_01_1809,2-25_cond_decay_EYE-try,2021.2.3,119.07289355383905,
,,,,0,0,0,0,,,,,,,,,,,,,,,,,,,,,,,,,,,,,,,,,,,,,,,,,,,588.4950122977607,None,588.4950122977607,None,588.4950122977607,None,DEC022,001,2022_Dec_01_1809,2-25_cond_decay_EYE-try,2021.2.3,119.07289355383905,
left,0.75,1.0,0,1,0,1,0,0,0,0,0,0,0,0,2,,,,,,,,,593.4945155847818,None,593.4945155847818,None,593.4945155847818,None,5s,609.462540530134,610.4626165078953,610.4543665768579,None,611.4544441010803,612.3374634007923,611.4544441010803,612.3374634007923,612.3374634007923,None,612.3374634007923,None,space,0.5031533064320683,612.3374634007923,None,0.8813,612.9698890419677,None,,,,,,,DEC022,001,2022_Dec_01_1809,2-25_cond_decay_EYE-try,2021.2.3,119.07289355383905,
right,1.0,0.75,0,1,0,1,0,0,0,0,0,0,1,1,5,,,,,,,,,,,,,,,5s,614.0366585929878,615.0385517701507,615.0213115578517,None,616.0211510048248,616.6625195159577,616.0211510048248,616.6625195159577,616.6625195159577,None,616.6625195159577,None,space,0.43693824810907245,616.6625195159577,None,0.6358,617.2280203388073,None,,,,,,,DEC022,001,2022_Dec_01_1809,2-25_cond_decay_EYE-try,2021.2.3,119.07289355383905,
right,0.75,1.0,1,1,0,1,0,0,0,0,0,0,2,2,9,,,,,,,,,,,,,,,5s,618.3117351639085,619.3134393258952,619.305024326779,None,620.3051696377806,621.954387107864,620.3051696377806,621.954387107864,621.9466809411533,None,621.9466809411533,None,space,0.47732823714613914,621.9466809411533,None,1.6465,622.5533708380535,None,,,,,,,DEC022,001,2022_Dec_01_1809,2-25_cond_decay_EYE-try,2021.2.3,119.07289355383905,
left,0.75,1.0,0,1,0,1,0,0,0,0,0,0,3,3,3,,,,,,,,,,,,,,,5s,623.645758154802,624.646699836012,624.6381839038804,None,625.6379085918888,627.6133017931134,625.6379085918888,627.6133017931134,627.6133017931134,None,627.6133017931134,None,None,,627.6133017931134,None,1.97,628.7368909968063,None,,,,,,,DEC022,001,2022_Dec_01_1809,2-25_cond_decay_EYE-try,2021.2.3,119.07289355383905,
right,1.0,0.75,0,1,0,1,0,0,0,0,0,0,4,4,1,,,,,,,,,,,,,,,5s,629.8283460759558,630.8299654037692,630.8214389448985,None,631.8219807599671,634.7301006931812,631.8219807599671,634.7301006931812,634.7215190390125,None,634.7215190390125,None,space,0.35271266708150506,634.7215190390125,None,2.9018,635.2036434519105,None,,,,,,,DEC022,001,2022_Dec_01_1809,2-25_cond_decay_EYE-try,2021.2.3,119.07289355383905,
left,0.75,1.0,0,1,0,1,0,0,0,0,0,0,5,5,4,,,,,,,,,,,,,,,5s,636.303243834991,637.3052502488717,637.2881419961341,None,638.2882449659519,639.8212833851576,638.2882449659519,639.8212833851576,639.8212833851576,None,639.8212833851576,None,space,0.48611458437517285,639.8212833851576,None,1.527,640.4372870777734,None,,,,,,,DEC022,001,2022_Dec_01_1809,2-25_cond_decay_EYE-try,2021.2.3,119.07289355383905,
left,1.0,0.75,1,1,0,1,0,0,0,0,0,0,6,6,8,,,,,,,,,,,,,,,5s,641.4955988647416,642.4967066077515,642.4883454348892,None,643.4882326568477,643.8304434330203,643.4882326568477,643.8304434330203,643.8218478290364,None,643.8218478290364,None,space,0.49442072305828333,643.8218478290364,None,0.336,644.4457561778836,None,,,,,,,DEC022,001,2022_Dec_01_1809,2-25_cond_decay_EYE-try,2021.2.3,119.07289355383905,
left,0.75,1.0,0,1,0,1,0,0,0,0,0,0,7,7,7,,,,,,,,,,,,,,,5s,645.5304694389924,646.5301612997428,646.5217972518876,None,647.5217532678507,650.146565602161,647.5217532678507,650.146565602161,650.146565602161,None,650.146565602161,None,space,0.44220797484740615,650.146565602161,None,2.6259,650.7129223779775,None,,,,,,,DEC022,001,2022_Dec_01_1809,2-25_cond_decay_EYE-try,2021.2.3,119.07289355383905,
right,1.0,0.75,0,1,0,1,0,0,0,0,0,0,8,8,0,,,,,,,,,,,,,,,5s,651.8122365120798,652.8134806300513,652.8051761877723,None,653.8048769268207,657.9466104689054,653.8048769268207,657.9466104689054,657.9466104689054,None,657.9466104689054,None,space,0.6257948251441121,657.9466104689054,None,4.139,658.6957805929706,None,,,,,,,DEC022,001,2022_Dec_01_1809,2-25_cond_decay_EYE-try,2021.2.3,119.07289355383905,
left,0.75,1.0,0,1,0,1,0,0,0,0,0,0,9,9,6,,,,,,,,,,,,,,,5s,659.7958097821102,660.7967060548253,660.7881433041766,None,661.7798944921233,663.6472631278448,661.7798944921233,663.6472631278448,663.6553553910926,None,663.6553553910926,None,space,0.42791704600676894,663.6553553910926,None,1.8674,664.2118621668778,None,,,,,,,DEC022,001,2022_Dec_01_1809,2-25_cond_decay_EYE-try,2021.2.3,119.07289355383905,
left,0.75,1.0,0,1,0,1,0,0,0,0,0,1,0,10,4,,,,,,,,,,,,,,,5s,665.303412748035,666.3048626659438,666.2966870521195,None,667.2966136978939,670.0721143418923,667.2966136978939,670.0721143418923,670.0721143418923,None,670.0721143418923,None,space,0.49273155629634857,670.0721143418923,None,2.7727,670.6958570438437,None,,,,,,,DEC022,001,2022_Dec_01_1809,2-25_cond_decay_EYE-try,2021.2.3,119.07289355383905,
left,0.75,1.0,0,1,0,1,0,0,0,0,0,1,1,11,7,,,,,,,,,,,,,,,5s,671.7800265010446,672.7797818640247,672.7718101060018,None,673.7715794970281,674.1548894061707,673.7715794970281,674.1548894061707,674.1548894061707,None,674.1548894061707,None,space,0.47782167978584766,674.1548894061707,None,0.3835,674.7618890968151,None,,,,,,,DEC022,001,2022_Dec_01_1809,2-25_cond_decay_EYE-try,2021.2.3,119.07289355383905,
right,1.0,0.75,0,1,0,1,0,0,0,0,0,1,2,12,0,,,,,,,,,,,,,,,5s,675.8539682999253,676.855207616929,676.8468633340672,None,677.8466409891844,679.1134238601662,677.8466409891844,679.1134238601662,679.1058849710971,None,679.1058849710971,None,space,0.44997742492705584,679.1058849710971,None,1.2629,679.6799553218298,None,,,,,,,DEC022,001,2022_Dec_01_1809,2-25_cond_decay_EYE-try,2021.2.3,119.07289355383905,
right,1.0,0.75,0,1,0,1,0,0,0,0,0,1,3,13,1,,,,,,,,,,,,,,,5s,680.7721949270926,681.7717414298095,681.7632972048596,None,682.7636214988306,683.4886556807905,682.7636214988306,683.4886556807905,683.4886556807905,None,683.4886556807905,None,space,0.3943623350933194,683.4886556807905,None,0.7257,684.012947932817,None,,,,,,,DEC022,001,2022_Dec_01_1809,2-25_cond_decay_EYE-try,2021.2.3,119.07289355383905,
left,0.75,1.0,0,1,0,1,0,0,0,0,0,1,4,14,6,,,,,,,,,,,,,,,5s,685.1037244517356,686.1056151161902,686.0975219751708,None,687.0966930361465,688.5217379350215,687.0966930361465,688.5217379350215,688.5142441028729,689.5138038061559,688.5142441028729,689.5138038061559,None,,688.5142441028729,689.5138038061559,1.4215,689.6461927178316,None,,,,,,,DEC022,001,2022_Dec_01_1809,2-25_cond_decay_EYE-try,2021.2.3,119.07289355383905,
left,0.75,1.0,0,1,0,1,0,0,0,0,0,1,5,15,3,,,,,,,,,,,,,,,5s,690.7460170011036,691.746902207844,691.7303346749395,None,692.7301887017675,693.6891529099084,692.7301887017675,693.6891529099084,693.6891529099084,None,693.6891529099084,None,space,0.47482903581112623,693.6891529099084,None,0.956,694.2959335721098,None,,,,,,,DEC022,001,2022_Dec_01_1809,2-25_cond_decay_EYE-try,2021.2.3,119.07289355383905,
right,1.0,0.75,0,1,0,1,0,0,0,0,0,1,6,16,5,,,,,,,,,,,,,,,5s,695.3891069060192,696.3886044467799,696.3805427378975,None,697.3804410039447,698.0056610130705,697.3804410039447,698.0056610130705,698.0056610130705,None,698.0056610130705,None,space,0.47794305020943284,698.0056610130705,None,0.6222,698.613309988752,None,,,,,,,DEC022,001,2022_Dec_01_1809,2-25_cond_decay_EYE-try,2021.2.3,119.07289355383905,
right,1.0,0.75,0,1,0,1,0,0,0,0,0,1,7,17,2,,,,,,,,,,,,,,,5s,699.704635777045,700.7055718167685,700.6884180638008,None,701.6888097757474,702.9310391698964,701.6888097757474,702.9310391698964,702.9310391698964,None,702.9310391698964,None,space,0.335086430888623,702.9310391698964,None,1.2393,703.3963129399344,None,,,,,,,DEC022,001,2022_Dec_01_1809,2-25_cond_decay_EYE-try,2021.2.3,119.07289355383905,
right,0.75,1.0,1,1,0,1,0,0,0,0,0,1,8,18,9,,,,,,,,,,,,,,,5s,704.4874639739282,705.4890152518637,705.4724207459949,None,706.4725081440993,709.6645371420309,706.4725081440993,709.6645371420309,709.6645371420309,None,709.6645371420309,None,space,0.5765836206264794,709.6645371420309,None,3.1915,710.3711557951756,None,,,,,,,DEC022,001,2022_Dec_01_1809,2-25_cond_decay_EYE-try,2021.2.3,119.07289355383905,
left,1.0,0.75,1,1,0,1,0,0,0,0,0,1,9,19,8,,,,,,,,,,,,,,,5s,711.4624844780192,712.4645071891136,712.4558946229517,None,713.456260018982,717.9395269867964,713.456260018982,717.9395269867964,717.9307707771659,None,717.9307707771659,None,space,0.5525942780077457,717.9307707771659,None,4.4763,718.6124059171416,None,,,,,,,DEC022,001,2022_Dec_01_1809,2-25_cond_decay_EYE-try,2021.2.3,119.07289355383905,
,,,,1,0,1,0,0,0,0,0,,,,,,,,,,,,,,,,,,,,,,,,,,,,,,,,,,,,,,,,,,,,,DEC022,001,2022_Dec_01_1809,2-25_cond_decay_EYE-try,2021.2.3,119.07289355383905,
right,1.0,0.75,0,1,0,1,0,1,0,1,0,0,0,0,7,,,,,,,,,719.5050067459233,None,719.5050067459233,None,719.5050067459233,None,10s,722.2880252748728,723.2891108421609,723.272109427955,None,724.2722110948525,725.3473198991269,724.2722110948525,725.3473198991269,725.3473198991269,None,725.3473198991269,None,space,0.3927676393650472,725.3473198991269,None,1.0691,725.8645309968852,None,,,,,,,DEC022,001,2022_Dec_01_1809,2-25_cond_decay_EYE-try,2021.2.3,119.07289355383905,
left,0.75,1.0,0,1,0,1,0,1,0,1,0,0,1,1,6,,,,,,,,,,,,,,,10s,726.962566436734,727.9638638501056,727.9563391129486,None,728.9562850738876,735.4480175059289,728.9562850738876,735.4480175059289,735.4480175059289,None,735.4480175059289,None,space,0.4020711802877486,735.4480175059289,None,6.4912,735.9730690987781,None,,,,,,,DEC022,001,2022_Dec_01_1809,2-25_cond_decay_EYE-try,2021.2.3,119.07289355383905,
right,1.0,0.75,0,1,0,1,0,1,0,1,0,0,2,2,4,,,,,,,,,,,,,,,10s,737.0721086971462,738.0729850349016,738.0557906711474,None,739.0559128620662,741.8391825561412,739.0559128620662,741.8391825561412,741.8479891191237,None,741.8479891191237,None,space,0.47570495400577784,741.8479891191237,None,2.7848,742.4543643197976,None,,,,,,,DEC022,001,2022_Dec_01_1809,2-25_cond_decay_EYE-try,2021.2.3,119.07289355383905,
right,0.75,1.0,1,1,0,1,0,1,0,1,0,0,3,3,3,,,,,,,,,,,,,,,10s,743.5394350951537,744.5389843229204,744.5306510520168,None,745.5311416080222,755.5228019841015,745.5311416080222,755.5228019841015,755.5228019841015,None,755.5228019841015,None,None,,755.5228019841015,None,9.9869,756.6466597020626,None,,,,,,,DEC022,001,2022_Dec_01_1809,2-25_cond_decay_EYE-try,2021.2.3,119.07289355383905,
left,0.75,1.0,0,1,0,1,0,1,0,1,0,0,4,4,1,,,,,,,,,,,,,,,10s,757.7379307188094,758.739940114785,758.7231407440268,None,759.7225902420469,761.1646776469424,759.7225902420469,761.1646776469424,761.1646776469424,None,761.1646776469424,None,space,0.4944931282661855,761.1646776469424,None,1.4401,761.7888033627532,None,,,,,,,DEC022,001,2022_Dec_01_1809,2-25_cond_decay_EYE-try,2021.2.3,119.07289355383905,
right,1.0,0.75,0,1,0,1,0,1,0,1,0,0,5,5,2,,,,,,,,,,,,,,,10s,762.8796923821792,763.8809894598089,763.8725855797529,None,764.8732394259423,772.0061052790843,764.8732394259423,772.0061052790843,772.0061052790843,None,772.0061052790843,None,space,0.5595114878378808,772.0061052790843,None,7.1334,772.6972098941915,None,,,,,,,DEC022,001,2022_Dec_01_1809,2-25_cond_decay_EYE-try,2021.2.3,119.07289355383905,
right,1.0,0.75,0,1,0,1,0,1,0,1,0,0,6,6,8,,,,,,,,,,,,,,,10s,773.7810408519581,774.7817052230239,774.7734266370535,None,775.7735386900604,780.3566440739669,775.7735386900604,780.3566440739669,780.3479797798209,None,780.3479797798209,None,space,0.5112734460271895,780.3479797798209,None,4.5776,780.9887711210176,None,,,,,,,DEC022,001,2022_Dec_01_1809,2-25_cond_decay_EYE-try,2021.2.3,119.07289355383905,
left,0.75,1.0,0,1,0,1,0,1,0,1,0,0,7,7,0,,,,,,,,,,,,,,,10s,782.0479984479025,783.0486450991593,783.0395444538444,None,784.0402934937738,791.7901611821726,784.0402934937738,791.7901611821726,791.7815337129869,None,791.7815337129869,None,space,0.5836392221972346,791.7815337129869,None,7.7426,792.4904505270533,None,,,,,,,DEC022,001,2022_Dec_01_1809,2-25_cond_decay_EYE-try,2021.2.3,119.07289355383905,
right,1.0,0.75,0,1,0,1,0,1,0,1,0,0,8,8,9,,,,,,,,,,,,,,,10s,793.5893127638847,794.5902565238066,794.5733630438335,None,795.5733850137331,804.590030530002,795.5733850137331,804.590030530002,804.590030530002,None,804.590030530002,None,space,0.47747758124023676,804.590030530002,None,9.0107,805.1975516527891,None,,,,,,,DEC022,001,2022_Dec_01_1809,2-25_cond_decay_EYE-try,2021.2.3,119.07289355383905,
left,1.0,0.75,1,1,0,1,0,1,0,1,0,0,9,9,5,,,,,,,,,,,,,,,10s,806.2887070798315,807.2904225918464,807.2819410478696,None,808.2821003119461,811.6153379441239,808.2821003119461,811.6153379441239,811.6068257899024,812.6069852150977,811.6068257899024,812.6069852150977,None,,811.6068257899024,812.6069852150977,3.3293,812.7388145569712,None,,,,,,,DEC022,001,2022_Dec_01_1809,2-25_cond_decay_EYE-try,2021.2.3,119.07289355383905,
left,1.0,0.75,1,1,0,1,0,1,0,1,0,1,0,10,5,,,,,,,,,,,,,,,10s,813.8224679669365,814.823157326784,814.8148958371021,None,815.8152297679335,819.3567712740041,815.8152297679335,819.3567712740041,819.348929299973,None,819.348929299973,None,space,0.5274068098515272,819.348929299973,None,3.5369,820.0052755037323,None,,,,,,,DEC022,001,2022_Dec_01_1809,2-25_cond_decay_EYE-try,2021.2.3,119.07289355383905,
right,1.0,0.75,0,1,0,1,0,1,0,1,0,1,1,11,4,,,,,,,,,,,,,,,10s,821.0974598410539,822.0983144929633,822.0897422069684,None,823.0897420560941,832.4898188118823,823.0897420560941,832.4898188118823,832.4898188118823,833.489907279145,832.4898188118823,833.489907279145,None,,832.4898188118823,833.489907279145,9.4012,833.622283292003,None,,,,,,,DEC022,001,2022_Dec_01_1809,2-25_cond_decay_EYE-try,2021.2.3,119.07289355383905,
left,0.75,1.0,0,1,0,1,0,1,0,1,0,1,2,12,1,,,,,,,,,,,,,,,10s,834.6807459038682,835.6817403831519,835.6742005017586,None,836.6737472559325,839.1491552558728,836.6737472559325,839.1491552558728,839.1405489821918,None,839.1405489821918,None,space,0.5277437618933618,839.1405489821918,None,2.4692,839.7976315477863,None,,,,,,,DEC022,001,2022_Dec_01_1809,2-25_cond_decay_EYE-try,2021.2.3,119.07289355383905,
left,0.75,1.0,0,1,0,1,0,1,0,1,0,1,3,13,6,,,,,,,,,,,,,,,10s,840.8895442811772,841.8899758639745,841.88172825519,None,842.8819648730569,852.0906808441505,842.8819648730569,852.0906808441505,852.0822474048473,853.0824823738076,852.0822474048473,853.0824823738076,None,,852.0822474048473,853.0824823738076,9.2036,853.2140679657459,None,,,,,,,DEC022,001,2022_Dec_01_1809,2-25_cond_decay_EYE-try,2021.2.3,119.07289355383905,
right,1.0,0.75,0,1,0,1,0,1,0,1,0,1,4,14,8,,,,,,,,,,,,,,,10s,854.3148206551559,855.3161360588856,855.3076437488198,None,856.2987912478857,858.0491204331629,856.2987912478857,858.0491204331629,858.0491204331629,None,858.0491204331629,None,space,0.4585601529106498,858.0491204331629,None,1.7438,858.6398509941064,None,,,,,,,DEC022,001,2022_Dec_01_1809,2-25_cond_decay_EYE-try,2021.2.3,119.07289355383905,
left,0.75,1.0,0,1,0,1,0,1,0,1,0,1,5,15,7,,,,,,,,,,,,,,,10s,859.7306766328402,860.732755930163,860.7152637089603,None,861.7157213897444,864.9912749598734,861.7157213897444,864.9912749598734,864.9912749598734,None,864.9912749598734,None,space,0.5329678300768137,864.9912749598734,None,3.2745,865.6494792369194,None,,,,,,,DEC022,001,2022_Dec_01_1809,2-25_cond_decay_EYE-try,2021.2.3,119.07289355383905,
right,1.0,0.75,0,1,0,1,0,1,0,1,0,1,6,16,9,,,,,,,,,,,,,,,10s,866.7479940620251,867.7486058687791,867.7326553110033,None,868.7321732100099,870.8823031741194,868.7321732100099,870.8823031741194,870.8823031741194,None,870.8823031741194,None,None,,870.8823031741194,None,2.149,872.0057002478279,None,,,,,,,DEC022,001,2022_Dec_01_1809,2-25_cond_decay_EYE-try,2021.2.3,119.07289355383905,
right,0.75,1.0,1,1,0,1,0,1,0,1,0,1,7,17,3,,,,,,,,,,,,,,,10s,873.0912256510928,874.0905409608968,874.0823670970276,None,875.0822176411748,878.4659475381486,875.0822176411748,878.4659475381486,878.4659475381486,None,878.4659475381486,None,space,0.4173707799054682,878.4659475381486,None,3.3828,879.0149268931709,None,,,,,,,DEC022,001,2022_Dec_01_1809,2-25_cond_decay_EYE-try,2021.2.3,119.07289355383905,
left,0.75,1.0,0,1,0,1,0,1,0,1,0,1,8,18,0,,,,,,,,,,,,,,,10s,880.1062336228788,881.1075084507465,881.0992149668746,None,882.0994222150184,885.0073305489495,882.0994222150184,885.0073305489495,884.9996437719092,None,884.9996437719092,None,space,0.49969554506242275,884.9996437719092,None,2.9067,885.6239884998649,None,,,,,,,DEC022,001,2022_Dec_01_1809,2-25_cond_decay_EYE-try,2021.2.3,119.07289355383905,
right,1.0,0.75,0,1,0,1,0,1,0,1,0,1,9,19,2,,,,,,,,,,,,,,,10s,886.7233128510416,887.7243490000255,887.7162035158835,None,888.7163891890086,893.5911969747394,888.7163891890086,893.5911969747394,893.5911969747394,None,893.5911969747394,None,space,0.542008469812572,893.5911969747394,None,4.8708,894.2561202659272,None,,,,,,,DEC022,001,2022_Dec_01_1809,2-25_cond_decay_EYE-try,2021.2.3,119.07289355383905,
,,,,1,0,1,0,1,0,1,0,,,,,,,,,,,,,,,,,,,,,,,,,,,,,,,,,,,,,,,,,,,,,DEC022,001,2022_Dec_01_1809,2-25_cond_decay_EYE-try,2021.2.3,119.07289355383905,
left,0.75,1.0,0,1,0,1,0,2,0,2,0,0,0,0,1,,,,,,,,,895.1560253379866,None,895.1560253379866,None,895.1560253379866,None,1s,900.3901627957821,901.3911169897765,901.3828669958748,None,902.3831375851296,903.2410445441492,902.3831375851296,903.2410445441492,903.2410445441492,None,903.2410445441492,None,space,0.6023515188135207,903.2410445441492,None,0.8582,903.9731533899903,None,,,,,,,DEC022,001,2022_Dec_01_1809,2-25_cond_decay_EYE-try,2021.2.3,119.07289355383905,
left,0.75,1.0,0,1,0,1,0,2,0,2,0,0,1,1,6,,,,,,,,,,,,,,,1s,905.0646666740067,906.0660571651533,906.0574907441624,None,907.0572880911641,907.9243116597645,907.0572880911641,907.9243116597645,907.9243116597645,None,907.9243116597645,None,space,0.4256539079360664,907.9243116597645,None,0.8681,908.4746087277308,None,,,,,,,DEC022,001,2022_Dec_01_1809,2-25_cond_decay_EYE-try,2021.2.3,119.07289355383905,
right,1.0,0.75,0,1,0,1,0,2,0,2,0,0,2,2,5,,,,,,,,,,,,,,,1s,909.5730316988192,910.5749608371407,910.5657479618676,None,911.5666930829175,912.0243126749992,911.5666930829175,912.0243126749992,912.0243126749992,None,912.0243126749992,None,space,0.4110128930769861,912.0243126749992,None,0.4577,912.5648670941591,None,,,,,,,DEC022,001,2022_Dec_01_1809,2-25_cond_decay_EYE-try,2021.2.3,119.07289355383905,
right,0.75,1.0,1,1,0,1,0,2,0,2,0,0,3,3,4,,,,,,,,,,,,,,,1s,913.6563526098616,914.6579897589982,914.6500981529243,None,915.6497402577661,915.8167204381898,915.6497402577661,915.8167204381898,915.8167204381898,None,915.8167204381898,None,space,0.418621223885566,915.8167204381898,None,0.1659,916.3654598598368,None,,,,,,,DEC022,001,2022_Dec_01_1809,2-25_cond_decay_EYE-try,2021.2.3,119.07289355383905,
left,0.75,1.0,0,1,0,1,0,2,0,2,0,0,4,4,3,,,,,,,,,,,,,,,1s,917.457191681955,918.4576993789524,918.4493062398396,None,919.4499053871259,920.3500479417853,919.4499053871259,920.3500479417853,920.3413126869127,None,920.3413126869127,None,space,0.32705330289900303,920.3413126869127,None,0.8967,920.79838851979,None,,,,,,,DEC022,001,2022_Dec_01_1809,2-25_cond_decay_EYE-try,2021.2.3,119.07289355383905,
left,1.0,0.75,1,1,0,1,0,2,0,2,0,0,5,5,8,,,,,,,,,,,,,,,1s,921.8819358781911,922.8833044799976,922.8750704498962,None,923.8749662209302,924.691800633911,923.8749662209302,924.691800633911,924.6832342958078,None,924.6832342958078,None,space,0.39244459429755807,924.6832342958078,None,0.8112,925.1996569470502,None,,,,,,,DEC022,001,2022_Dec_01_1809,2-25_cond_decay_EYE-try,2021.2.3,119.07289355383905,
right,1.0,0.75,0,1,0,1,0,2,0,2,0,0,6,6,9,,,,,,,,,,,,,,,1s,926.2984656491317,927.2998260827735,927.2916277069598,None,928.291561383754,929.1084658838809,928.291561383754,929.1084658838809,929.0997630711645,930.09971761005,929.0997630711645,930.09971761005,None,,929.0997630711645,930.09971761005,0.8151,930.231685873121,None,,,,,,,DEC022,001,2022_Dec_01_1809,2-25_cond_decay_EYE-try,2021.2.3,119.07289355383905,
left,0.75,1.0,0,1,0,1,0,2,0,2,0,0,7,7,2,,,,,,,,,,,,,,,1s,931.323991658166,932.3250131011009,932.3161113508977,None,933.3167224191129,933.9577341410331,933.3167224191129,933.9577341410331,933.9501077071764,None,933.9501077071764,None,space,0.3999915951862931,933.9501077071764,None,0.6391,934.4823306510225,None,,,,,,,DEC022,001,2022_Dec_01_1809,2-25_cond_decay_EYE-try,2021.2.3,119.07289355383905,
left,0.75,1.0,0,1,0,1,0,2,0,2,0,0,8,8,7,,,,,,,,,,,,,,,1s,935.5730569669977,936.5746302711777,936.5586849297397,None,937.5585442478769,937.8327857931145,937.5585442478769,937.8327857931145,937.8327857931145,None,937.8327857931145,None,space,0.5171627230010927,937.8327857931145,None,0.2702,938.4738354180008,None,,,,,,,DEC022,001,2022_Dec_01_1809,2-25_cond_decay_EYE-try,2021.2.3,119.07289355383905,
right,1.0,0.75,0,1,0,1,0,2,0,2,0,0,9,9,0,,,,,,,,,,,,,,,1s,939.5737282070331,940.5746678598225,940.5664979210123,None,941.5665438990109,941.8915838100947,941.5665438990109,941.8915838100947,941.8828211417422,None,941.8828211417422,None,space,0.3782532727345824,941.8828211417422,None,0.3213,942.3900688048452,None,,,,,,,DEC022,001,2022_Dec_01_1809,2-25_cond_decay_EYE-try,2021.2.3,119.07289355383905,
right,1.0,0.75,0,1,0,1,0,2,0,2,0,1,0,10,9,,,,,,,,,,,,,,,1s,943.4816556931473,944.4827560847625,944.4662728281692,None,945.4664534670301,946.1666041547433,945.4664534670301,946.1666041547433,946.1744441110641,None,946.1744441110641,None,space,0.35153785487636924,946.1744441110641,None,0.7008,946.6501943911426,None,,,,,,,DEC022,001,2022_Dec_01_1809,2-25_cond_decay_EYE-try,2021.2.3,119.07289355383905,
right,0.75,1.0,1,1,0,1,0,2,0,2,0,1,1,11,4,,,,,,,,,,,,,,,1s,947.7412179578096,948.7415851769038,948.7333791237324,None,949.733709842898,950.4915468748659,949.733709842898,950.4915468748659,950.4837679918855,None,950.4837679918855,None,space,0.4337983736768365,950.4837679918855,None,0.7526,951.048899602145,None,,,,,,,DEC022,001,2022_Dec_01_1809,2-25_cond_decay_EYE-try,2021.2.3,119.07289355383905,
left,1.0,0.75,1,1,0,1,0,2,0,2,0,1,2,12,8,,,,,,,,,,,,,,,1s,952.1398539110087,953.1414934368804,953.1331424647942,None,954.1334185888991,954.5330008631572,954.1334185888991,954.5330008631572,954.5330008631572,None,954.5330008631572,None,space,0.4111033799126744,954.5330008631572,None,0.4006,955.0736682899296,None,,,,,,,DEC022,001,2022_Dec_01_1809,2-25_cond_decay_EYE-try,2021.2.3,119.07289355383905,
left,0.75,1.0,0,1,0,1,0,2,0,2,0,1,3,13,2,,,,,,,,,,,,,,,1s,956.1587952929549,957.1584946559742,957.1504870858043,None,958.1495729358867,958.4754835311323,958.1495729358867,958.4754835311323,958.4754835311323,None,958.4754835311323,None,space,0.45845464477315545,958.4754835311323,None,0.3259,959.065758714918,None,,,,,,,DEC022,001,2022_Dec_01_1809,2-25_cond_decay_EYE-try,2021.2.3,119.07289355383905,
left,0.75,1.0,0,1,0,1,0,2,0,2,0,1,4,14,7,,,,,,,,,,,,,,,1s,960.1574154230766,961.1584138600156,961.1500540398993,None,962.1506327539682,962.3330680849031,962.1506327539682,962.3330680849031,962.3330680849031,None,962.3330680849031,None,space,0.4111716770567,962.3330680849031,None,0.1799,962.8742571100593,None,,,,,,,DEC022,001,2022_Dec_01_1809,2-25_cond_decay_EYE-try,2021.2.3,119.07289355383905,
right,1.0,0.75,0,1,0,1,0,2,0,2,0,1,5,15,5,,,,,,,,,,,,,,,1s,963.9653147878125,964.966478148941,964.9582237061113,None,965.958098879084,966.7086687157862,965.958098879084,966.7086687157862,966.7086687157862,None,966.7086687157862,None,space,0.3026641826145351,966.7086687157862,None,0.7512,967.140225505922,None,,,,,,,DEC022,001,2022_Dec_01_1809,2-25_cond_decay_EYE-try,2021.2.3,119.07289355383905,
left,0.75,1.0,0,1,0,1,0,2,0,2,0,1,6,16,6,,,,,,,,,,,,,,,1s,968.2318604788743,969.2331318971701,969.2247820738703,None,970.2247809479013,970.550011954736,970.2247809479013,970.550011954736,970.5423693568446,None,970.5423693568446,None,space,0.39364804001525044,970.5423693568446,None,0.3233,971.065808088053,None,,,,,,,DEC022,001,2022_Dec_01_1809,2-25_cond_decay_EYE-try,2021.2.3,119.07289355383905,
right,1.0,0.75,0,1,0,1,0,2,0,2,0,1,7,17,1,,,,,,,,,,,,,,,1s,972.1591156250797,973.1581687391736,973.1505819261074,None,974.1503181410953,974.7752292267978,974.1503181410953,974.7752292267978,974.7752292267978,None,974.7752292267978,None,space,0.30837270990014076,974.7752292267978,None,0.6229,975.2091516349465,None,,,,,,,DEC022,001,2022_Dec_01_1809,2-25_cond_decay_EYE-try,2021.2.3,119.07289355383905,
left,0.75,1.0,0,1,0,1,0,2,0,2,0,1,8,18,3,,,,,,,,,,,,,,,1s,976.315417396836,977.3163156327792,977.3004117421806,None,978.2997314399108,978.8998783477582,978.2997314399108,978.8998783477582,978.8998783477582,None,978.8998783477582,None,space,0.3597782258875668,978.8998783477582,None,0.5998,979.3837022599764,None,,,,,,,DEC022,001,2022_Dec_01_1809,2-25_cond_decay_EYE-try,2021.2.3,119.07289355383905,
right,1.0,0.75,0,1,0,1,0,2,0,2,0,1,9,19,0,,,,,,,,,,,,,,,1s,980.482885570731,981.4836769378744,981.4753446648829,None,982.4749714247882,983.2419028617442,982.4749714247882,983.2419028617442,983.2333476380445,None,983.2333476380445,None,space,0.37792737409472466,983.2333476380445,None,0.7601,983.7407781039365,None,,,,,,,DEC022,001,2022_Dec_01_1809,2-25_cond_decay_EYE-try,2021.2.3,119.07289355383905,
,,,,1,0,1,0,2,0,2,0,,,,,,,,,,,,,,,,,,,,,,,,,,,,,,,,,,,,,,,,,,,,,DEC022,001,2022_Dec_01_1809,2-25_cond_decay_EYE-try,2021.2.3,119.07289355383905,
right,1.0,0.75,0,1,0,1,0,3,0,3,0,0,0,0,5,,,,,,,,,984.6328065381385,None,984.6328065381385,None,984.6328065381385,None,3s,989.792628843803,990.7925532041118,990.7842115350068,None,991.7840906828642,993.6256788671017,991.7840906828642,993.6256788671017,993.6256788671017,None,993.6256788671017,None,space,0.3444577818736434,993.6256788671017,None,1.8376,994.099313064944,None,,,,,,,DEC022,001,2022_Dec_01_1809,2-25_cond_decay_EYE-try,2021.2.3,119.07289355383905,
right,0.75,1.0,1,1,0,1,0,3,0,3,0,0,1,1,6,,,,,,,,,,,,,,,3s,995.1904495321214,996.1920624868944,996.1835722699761,None,997.1839176448993,997.8749288208783,997.1839176448993,997.8749288208783,997.8749288208783,None,997.8749288208783,None,space,0.8426393708214164,997.8749288208783,None,0.6874,998.8413045690395,None,,,,,,,DEC022,001,2022_Dec_01_1809,2-25_cond_decay_EYE-try,2021.2.3,119.07289355383905,
left,0.75,1.0,0,1,0,1,0,3,0,3,0,0,2,2,1,,,,,,,,,,,,,,,3s,999.9408460869454,1000.9422206948511,1000.9257284691557,None,1001.9260564688593,1004.5750922360457,1001.9260564688593,1004.5750922360457,1004.5750922360457,None,1004.5750922360457,None,space,0.37799993297085166,1004.5750922360457,None,2.6482,1005.0826096227393,None,,,,,,,DEC022,001,2022_Dec_01_1809,2-25_cond_decay_EYE-try,2021.2.3,119.07289355383905,
left,0.75,1.0,0,1,0,1,0,3,0,3,0,0,3,3,0,,,,,,,,,,,,,,,3s,1006.1746447598562,1007.1759129087441,1007.167348486837,None,1008.1667791567743,1010.3837958499789,1008.1667791567743,1010.3837958499789,1010.3752279737964,None,1010.3752279737964,None,space,0.3692459533922374,1010.3752279737964,None,2.2129,1010.8746016011573,None,,,,,,,DEC022,001,2022_Dec_01_1809,2-25_cond_decay_EYE-try,2021.2.3,119.07289355383905,
left,0.75,1.0,0,1,0,1,0,3,0,3,0,0,4,4,2,,,,,,,,,,,,,,,3s,1011.965756605845,1012.9674944700673,1012.95931505505,None,1013.9589146850631,1014.9844804871827,1013.9589146850631,1014.9844804871827,1014.9756641481072,None,1014.9756641481072,None,space,0.3944948152638972,1014.9756641481072,None,1.0229,1015.4998264121823,None,,,,,,,DEC022,001,2022_Dec_01_1809,2-25_cond_decay_EYE-try,2021.2.3,119.07289355383905,
left,0.75,1.0,0,1,0,1,0,3,0,3,0,0,5,5,4,,,,,,,,,,,,,,,3s,1016.591370489914,1017.5923979468644,1017.5839934409596,None,1018.5836800187826,1021.5678337379359,1018.5836800187826,1021.5678337379359,1021.5591910649091,None,1021.5591910649091,None,space,0.3855753829702735,1021.5591910649091,None,2.977,1022.0746932071634,None,,,,,,,DEC022,001,2022_Dec_01_1809,2-25_cond_decay_EYE-try,2021.2.3,119.07289355383905,
right,1.0,0.75,0,1,0,1,0,3,0,3,0,0,6,6,9,,,,,,,,,,,,,,,3s,1023.1667590257712,1024.1678838739172,1024.159112474881,None,1025.1588265807368,1027.4587992238812,1025.1588265807368,1027.4587992238812,1027.4511863230728,None,1027.4511863230728,None,space,0.35208252212032676,1027.4511863230728,None,2.2935,1027.9327278439887,None,,,,,,,DEC022,001,2022_Dec_01_1809,2-25_cond_decay_EYE-try,2021.2.3,119.07289355383905,
left,1.0,0.75,1,1,0,1,0,3,0,3,0,0,7,7,8,,,,,,,,,,,,,,,3s,1029.0245322939008,1030.0256717139855,1030.01727901306,None,1031.017197885085,1031.3764272117987,1031.017197885085,1031.3764272117987,1031.3764272117987,None,1031.3764272117987,None,space,0.4187797699123621,1031.3764272117987,None,0.3573,1031.9246662310325,None,,,,,,,DEC022,001,2022_Dec_01_1809,2-25_cond_decay_EYE-try,2021.2.3,119.07289355383905,
right,1.0,0.75,0,1,0,1,0,3,0,3,0,0,8,8,7,,,,,,,,,,,,,,,3s,1033.0164995379746,1034.01793398289,1034.0096259959973,None,1035.0095239388756,1036.3508301610127,1035.0095239388756,1036.3508301610127,1036.342140104156,None,1036.342140104156,None,space,0.3344615097157657,1036.342140104156,None,1.3338,1036.7996097891591,None,,,,,,,DEC022,001,2022_Dec_01_1809,2-25_cond_decay_EYE-try,2021.2.3,119.07289355383905,
right,1.0,0.75,0,1,0,1,0,3,0,3,0,0,9,9,3,,,,,,,,,,,,,,,3s,1037.8991474648938,1038.900763337966,1038.8925292091444,None,1039.8924767849967,1041.1090541477315,1039.8924767849967,1041.1090541477315,1041.1090541477315,None,1041.1090541477315,None,space,0.4196978029794991,1041.1090541477315,None,1.213,1041.6575458077714,None,,,,,,,DEC022,001,2022_Dec_01_1809,2-25_cond_decay_EYE-try,2021.2.3,119.07289355383905,
right,1.0,0.75,0,1,0,1,0,3,0,3,0,1,0,10,9,,,,,,,,,,,,,,,3s,1042.742384096142,1043.7426722380333,1043.7345252507366,None,1044.7344838581048,1046.3760040560737,1044.7344838581048,1046.3760040560737,1046.3760040560737,None,1046.3760040560737,None,space,0.34417950408533216,1046.3760040560737,None,1.6422,1046.8498018188402,None,,,,,,,DEC022,001,2022_Dec_01_1809,2-25_cond_decay_EYE-try,2021.2.3,119.07289355383905,
left,0.75,1.0,0,1,0,1,0,3,0,3,0,1,1,11,2,,,,,,,,,,,,,,,3s,1047.9411558629945,1048.9425081820227,1048.9343019737862,None,1049.934301118832,1052.5764271551743,1049.934301118832,1052.5764271551743,1052.5676205977798,1053.567445446737,1052.5676205977798,1053.567445446737,None,,1052.5676205977798,1053.567445446737,2.636,1053.6998454849236,None,,,,,,,DEC022,001,2022_Dec_01_1809,2-25_cond_decay_EYE-try,2021.2.3,119.07289355383905,
right,0.75,1.0,1,1,0,1,0,3,0,3,0,1,2,12,6,,,,,,,,,,,,,,,3s,1054.7920268890448,1055.7924158200622,1055.7841773838736,None,1056.7841148599982,1059.4091954240575,1056.7841148599982,1059.4091954240575,1059.4013886237517,None,1059.4013886237517,None,space,0.4505346128717065,1059.4013886237517,None,2.6232,1059.98324612109,None,,,,,,,DEC022,001,2022_Dec_01_1809,2-25_cond_decay_EYE-try,2021.2.3,119.07289355383905,
left,0.75,1.0,0,1,0,1,0,3,0,3,0,1,3,13,1,,,,,,,,,,,,,,,3s,1061.0744274118915,1062.076206556987,1062.0598301240243,None,1063.0594065058976,1064.7677393867634,1063.0594065058976,1064.7677393867634,1064.7677393867634,None,1064.7677393867634,None,space,0.4840297200717032,1064.7677393867634,None,1.7075,1065.3759695189074,None,,,,,,,DEC022,001,2022_Dec_01_1809,2-25_cond_decay_EYE-try,2021.2.3,119.07289355383905,
right,1.0,0.75,0,1,0,1,0,3,0,3,0,1,4,14,7,,,,,,,,,,,,,,,3s,1066.4748449609615,1067.4764126078226,1067.4681094968691,None,1068.468443368096,1070.7601272319444,1068.468443368096,1070.7601272319444,1070.7513591079041,None,1070.7513591079041,None,space,0.3584779351949692,1070.7513591079041,None,2.2884,1071.2333462741226,None,,,,,,,DEC022,001,2022_Dec_01_1809,2-25_cond_decay_EYE-try,2021.2.3,119.07289355383905,
left,0.75,1.0,0,1,0,1,0,3,0,3,0,1,5,15,0,,,,,,,,,,,,,,,3s,1072.3339719171636,1073.3342555388808,1073.3263399731368,None,1074.3265871610492,1075.7601372487843,1074.3265871610492,1075.7601372487843,1075.7515973127447,None,1075.7515973127447,None,space,0.4105483749881387,1075.7515973127447,None,1.4283,1076.2921991571784,None,,,,,,,DEC022,001,2022_Dec_01_1809,2-25_cond_decay_EYE-try,2021.2.3,119.07289355383905,
left,0.75,1.0,0,1,0,1,0,3,0,3,0,1,6,16,4,,,,,,,,,,,,,,,3s,1077.3829253441654,1078.3850708198734,1078.3683785330504,None,1079.3683976987377,1081.0100864637643,1079.3683976987377,1081.0100864637643,1081.0100864637643,None,1081.0100864637643,None,space,0.3947145100682974,1081.0100864637643,None,1.6371,1081.5338407428935,None,,,,,,,DEC022,001,2022_Dec_01_1809,2-25_cond_decay_EYE-try,2021.2.3,119.07289355383905,
right,1.0,0.75,0,1,0,1,0,3,0,3,0,1,7,17,5,,,,,,,,,,,,,,,3s,1082.6256055091508,1083.6260286071338,1083.6179457739927,None,1084.6179884509183,1085.276331523899,1084.6179884509183,1085.276331523899,1085.276331523899,None,1085.276331523899,None,space,0.5586643950082362,1085.276331523899,None,0.6586,1085.95968081709,None,,,,,,,DEC022,001,2022_Dec_01_1809,2-25_cond_decay_EYE-try,2021.2.3,119.07289355383905,
left,1.0,0.75,1,1,0,1,0,3,0,3,0,1,8,18,8,,,,,,,,,,,,,,,3s,1087.058434037026,1088.059709182009,1088.051173569169,None,1089.0513874189928,1090.3514318019152,1089.0513874189928,1090.3514318019152,1090.3437185310759,None,1090.3437185310759,None,space,0.5771164679899812,1090.3437185310759,None,1.2959,1091.0507336989976,None,,,,,,,DEC022,001,2022_Dec_01_1809,2-25_cond_decay_EYE-try,2021.2.3,119.07289355383905,
right,1.0,0.75,0,1,0,1,0,3,0,3,0,1,9,19,3,,,,,,,,,,,,,,,3s,1092.1417766958475,1093.1429739198647,1093.1346569131128,None,1094.1346280439757,1096.7269507879391,1094.1346280439757,1096.7269507879391,1096.7269507879391,None,1096.7269507879391,None,space,0.3496998390182853,1096.7269507879391,None,2.5879,1097.201902159024,None,,,,,,,DEC022,001,2022_Dec_01_1809,2-25_cond_decay_EYE-try,2021.2.3,119.07289355383905,
,,,,1,0,1,0,3,0,3,0,,,,,,,,,,,,,,,,,,,,,,,,,,,,,,,,,,,,,,,,,,,,,DEC022,001,2022_Dec_01_1809,2-25_cond_decay_EYE-try,2021.2.3,119.07289355383905,
,,,,1,0,1,0,,,,,,,,,,,,,,,,,,,,,,,,,,,,,,,,,,,,,,,,,,,1098.100633258,None,1098.100633258,None,1098.100633258,None,DEC022,001,2022_Dec_01_1809,2-25_cond_decay_EYE-try,2021.2.3,119.07289355383905,
left,0.75,1.0,0,2,0,2,0,0,0,0,0,0,0,0,3,,,,,,,,,1103.1007343721576,None,1103.1007343721576,None,1103.1007343721576,None,1s,1120.5011008698493,1121.501764161978,1121.485601209104,None,1122.4853342231363,1123.3265284737572,1122.4853342231363,1123.3265284737572,1123.3265284737572,None,1123.3265284737572,None,space,0.38374329824000597,1123.3265284737572,None,0.8359,1123.8351485929452,None,,,,,,,DEC022,001,2022_Dec_01_1809,2-25_cond_decay_EYE-try,2021.2.3,119.07289355383905,
right,1.0,0.75,0,2,0,2,0,0,0,0,0,0,1,1,4,,,,,,,,,,,,,,,1s,1124.942606694065,1125.9437531358562,1125.9354096767493,None,1126.935487039853,1127.8603981328197,1126.935487039853,1127.8603981328197,1127.851970570162,None,1127.851970570162,None,space,0.4442072417587042,1127.851970570162,None,0.9228,1128.4258471401408,None,,,,,,,DEC022,001,2022_Dec_01_1809,2-25_cond_decay_EYE-try,2021.2.3,119.07289355383905,
left,0.75,1.0,0,2,0,2,0,0,0,0,0,0,2,2,6,,,,,,,,,,,,,,,1s,1129.5171883981675,1130.5182503177784,1130.510741550941,None,1131.5100850919262,1131.9524133107625,1131.5100850919262,1131.9524133107625,1131.9436662308872,None,1131.9436662308872,None,space,0.4105102391913533,1131.9436662308872,None,0.4401,1132.4835819718428,None,,,,,,,DEC022,001,2022_Dec_01_1809,2-25_cond_decay_EYE-try,2021.2.3,119.07289355383905,
right,0.75,1.0,1,2,0,2,0,0,0,0,0,0,3,3,5,,,,,,,,,,,,,,,1s,1133.5761758307926,1134.5765165239573,1134.568500471767,None,1135.5686740051024,1135.826532674022,1135.5686740051024,1135.826532674022,1135.826532674022,None,1135.826532674022,None,space,0.3609554171562195,1135.826532674022,None,0.2579,1136.317258796189,None,,,,,,,DEC022,001,2022_Dec_01_1809,2-25_cond_decay_EYE-try,2021.2.3,119.07289355383905,
left,0.75,1.0,0,2,0,2,0,0,0,0,0,0,4,4,7,,,,,,,,,,,,,,,1s,1137.4102114210837,1138.4104742547497,1138.4023199309595,None,1139.4015422151424,1139.5774994697422,1139.4015422151424,1139.5774994697422,1139.5774994697422,None,1139.5774994697422,None,space,0.3516959398984909,1139.5774994697422,None,0.1701,1140.0592714571394,None,,,,,,,DEC022,001,2022_Dec_01_1809,2-25_cond_decay_EYE-try,2021.2.3,119.07289355383905,
right,1.0,0.75,0,2,0,2,0,0,0,0,0,0,5,5,1,,,,,,,,,,,,,,,1s,1141.1509747109376,1142.1523567647673,1142.1435113907792,None,1143.1435591978952,1143.6524356831796,1143.1435591978952,1143.6524356831796,1143.6432741209865,None,1143.6432741209865,None,space,0.3280213619582355,1143.6432741209865,None,0.501,1144.1009862478822,None,,,,,,,DEC022,001,2022_Dec_01_1809,2-25_cond_decay_EYE-try,2021.2.3,119.07289355383905,
right,1.0,0.75,0,2,0,2,0,0,0,0,0,0,6,6,2,,,,,,,,,,,,,,,1s,1145.1923776869662,1146.1934520811774,1146.1773061850108,None,1147.1771937049925,1147.7432376258075,1147.1771937049925,1147.7432376258075,1147.7432376258075,None,1147.7432376258075,None,space,0.3507071421481669,1147.7432376258075,None,0.5647,1148.21915103402,None,,,,,,,DEC022,001,2022_Dec_01_1809,2-25_cond_decay_EYE-try,2021.2.3,119.07289355383905,
left,0.75,1.0,0,2,0,2,0,0,0,0,0,0,7,7,9,,,,,,,,,,,,,,,1s,1149.3172234110534,1150.3191080298275,1150.3106771991588,None,1151.3102433648892,1151.8516239789315,1151.3102433648892,1151.8516239789315,1151.844118361827,None,1151.844118361827,None,space,0.3102492829784751,1151.844118361827,None,0.5368,1152.2837362610735,None,,,,,,,DEC022,001,2022_Dec_01_1809,2-25_cond_decay_EYE-try,2021.2.3,119.07289355383905,
left,1.0,0.75,1,2,0,2,0,0,0,0,0,0,8,8,0,,,,,,,,,,,,,,,1s,1153.3761594649404,1154.3773537469096,1154.360757344868,None,1155.3602795237675,1155.961007204838,1155.3602795237675,1155.961007204838,1155.961007204838,None,1155.961007204838,None,space,0.35990441078320146,1155.961007204838,None,0.5981,1156.444284958765,None,,,,,,,DEC022,001,2022_Dec_01_1809,2-25_cond_decay_EYE-try,2021.2.3,119.07289355383905,
right,1.0,0.75,0,2,0,2,0,0,0,0,0,0,9,9,8,,,,,,,,,,,,,,,1s,1157.54319655383,1158.5441814148799,1158.5359209668823,None,1159.5360368457623,1160.2186123370193,1159.5360368457623,1160.2186123370193,1160.210817929823,None,1160.210817929823,None,space,0.3273893394507468,1160.210817929823,None,0.6798,1160.667185717728,None,,,,,,,DEC022,001,2022_Dec_01_1809,2-25_cond_decay_EYE-try,2021.2.3,119.07289355383905,
left,0.75,1.0,0,2,0,2,0,0,0,0,0,1,0,10,7,,,,,,,,,,,,,,,1s,1161.75966958981,1162.7600642908365,1162.7525830850936,None,1163.7521241069771,1164.41005116608,1163.7521241069771,1164.41005116608,1164.41005116608,None,1164.41005116608,None,space,0.3611296867020428,1164.41005116608,None,0.6546,1164.9004788887687,None,,,,,,,DEC022,001,2022_Dec_01_1809,2-25_cond_decay_EYE-try,2021.2.3,119.07289355383905,
left,1.0,0.75,1,2,0,2,0,0,0,0,0,1,1,11,0,,,,,,,,,,,,,,,1s,1165.9922715541907,1166.9939312618226,1166.9856867510825,None,1167.985918073915,1168.6692563099787,1167.985918073915,1168.6692563099787,1168.6602418208495,None,1168.6602418208495,None,space,0.29516961704939604,1168.6602418208495,None,0.6779,1169.0841701161116,None,,,,,,,DEC022,001,2022_Dec_01_1809,2-25_cond_decay_EYE-try,2021.2.3,119.07289355383905,
left,0.75,1.0,0,2,0,2,0,0,0,0,0,1,2,12,3,,,,,,,,,,,,,,,1s,1170.17577685602,1171.177388119977,1171.1691322941333,None,1172.1688950941898,1172.9528359877877,1172.1688950941898,1172.9528359877877,1172.9441721541807,None,1172.9441721541807,None,space,0.30919384490698576,1172.9441721541807,None,0.7781,1173.3849187260494,None,,,,,,,DEC022,001,2022_Dec_01_1809,2-25_cond_decay_EYE-try,2021.2.3,119.07289355383905,
left,0.75,1.0,0,2,0,2,0,0,0,0,0,1,3,13,6,,,,,,,,,,,,,,,1s,1174.4758368721232,1175.4775205091573,1175.469324898906,None,1176.4691970380954,1177.0525914859027,1176.4691970380954,1177.0525914859027,1177.0445957449265,None,1177.0445957449265,None,space,0.2603762806393206,1177.0445957449265,None,0.5777,1177.4350291681476,None,,,,,,,DEC022,001,2022_Dec_01_1809,2-25_cond_decay_EYE-try,2021.2.3,119.07289355383905,
right,1.0,0.75,0,2,0,2,0,0,0,0,0,1,4,14,2,,,,,,,,,,,,,,,1s,1178.5267680929974,1179.5270616179332,1179.518992625177,None,1180.518648630008,1180.8861658019014,1180.518648630008,1180.8861658019014,1180.877107984852,None,1180.877107984852,None,space,0.36745194904506207,1180.877107984852,None,0.3597,1181.3691917499527,None,,,,,,,DEC022,001,2022_Dec_01_1809,2-25_cond_decay_EYE-try,2021.2.3,119.07289355383905,
right,1.0,0.75,0,2,0,2,0,0,0,0,0,1,5,15,4,,,,,,,,,,,,,,,1s,1182.467877827119,1183.4694073260762,1183.452682537958,None,1184.4605108960532,1184.6863369871862,1184.4605108960532,1184.6863369871862,1184.6863369871862,None,1184.6863369871862,None,space,0.4103223280981183,1184.6863369871862,None,0.2262,1185.2258761981502,None,,,,,,,DEC022,001,2022_Dec_01_1809,2-25_cond_decay_EYE-try,2021.2.3,119.07289355383905,
right,1.0,0.75,0,2,0,2,0,0,0,0,0,1,6,16,1,,,,,,,,,,,,,,,1s,1186.3175343559124,1187.3189507359639,1187.3024691608734,None,1188.311038701795,1188.6107981321402,1188.311038701795,1188.6107981321402,1188.6020990279503,None,1188.6020990279503,None,space,0.3364189201965928,1188.6020990279503,None,0.2942,1189.0677506169304,None,,,,,,,DEC022,001,2022_Dec_01_1809,2-25_cond_decay_EYE-try,2021.2.3,119.07289355383905,
right,1.0,0.75,0,2,0,2,0,0,0,0,0,1,7,17,8,,,,,,,,,,,,,,,1s,1190.1600596481003,1191.160582270939,1191.1446048589423,None,1192.1447630850598,1193.0278644538485,1192.1447630850598,1193.0278644538485,1193.0278644538485,None,1193.0278644538485,None,space,0.2580777960829437,1193.0278644538485,None,0.8785,1193.4097000928596,None,,,,,,,DEC022,001,2022_Dec_01_1809,2-25_cond_decay_EYE-try,2021.2.3,119.07289355383905,
right,0.75,1.0,1,2,0,2,0,0,0,0,0,1,8,18,5,,,,,,,,,,,,,,,1s,1194.4761751107872,1195.4780128970742,1195.468737450894,None,1196.4695968180895,1197.3530443841591,1196.4695968180895,1197.3530443841591,1197.3443494960666,None,1197.3443494960666,None,space,0.31708676693961024,1197.3443494960666,None,0.8802,1197.7862506797537,None,,,,,,,DEC022,001,2022_Dec_01_1809,2-25_cond_decay_EYE-try,2021.2.3,119.07289355383905,
left,0.75,1.0,0,2,0,2,0,0,0,0,0,1,9,19,9,,,,,,,,,,,,,,,1s,1198.8847023858689,1199.88595214393,1199.8696501050144,None,1200.8698006561026,1201.4608044219203,1200.8698006561026,1201.4608044219203,1201.4608044219203,None,1201.4608044219203,None,space,0.3337873136624694,1201.4608044219203,None,0.5873,1201.9197594569996,None,,,,,,,DEC022,001,2022_Dec_01_1809,2-25_cond_decay_EYE-try,2021.2.3,119.07289355383905,
,,,,2,0,2,0,0,0,0,0,,,,,,,,,,,,,,,,,,,,,,,,,,,,,,,,,,,,,,,,,,,,,DEC022,001,2022_Dec_01_1809,2-25_cond_decay_EYE-try,2021.2.3,119.07289355383905,
right,1.0,0.75,0,2,0,2,0,1,0,1,0,0,0,0,6,,,,,,,,,1202.8181067910045,None,1202.8181067910045,None,1202.8181067910045,None,5s,1207.1615587351844,1208.161088834051,1208.1526479218155,None,1209.1525558480062,1211.5028568198904,1209.1525558480062,1211.5028568198904,1211.494161165785,None,1211.494161165785,None,space,0.37622258020564914,1211.494161165785,None,2.3435,1211.9947428680025,None,,,,,,,DEC022,001,2022_Dec_01_1809,2-25_cond_decay_EYE-try,2021.2.3,119.07289355383905,
left,0.75,1.0,0,2,0,2,0,1,0,1,0,0,1,1,4,,,,,,,,,,,,,,,5s,1213.0937029328197,1214.0947010088712,1214.0863183988258,None,1215.0863190628588,1219.3443085118197,1215.0863190628588,1219.3443085118197,1219.3364044041373,None,1219.3364044041373,None,space,0.38581390026956797,1219.3364044041373,None,4.2539,1219.8512407508679,None,,,,,,,DEC022,001,2022_Dec_01_1809,2-25_cond_decay_EYE-try,2021.2.3,119.07289355383905,
left,0.75,1.0,0,2,0,2,0,1,0,1,0,0,2,2,0,,,,,,,,,,,,,,,5s,1220.9098135600798,1221.910922194831,1221.9033859539777,None,1222.902554652188,1223.7196597619914,1222.902554652188,1223.7196597619914,1223.711194314994,None,1223.711194314994,None,space,0.41104871593415737,1223.711194314994,None,0.8116,1224.2513672099449,None,,,,,,,DEC022,001,2022_Dec_01_1809,2-25_cond_decay_EYE-try,2021.2.3,119.07289355383905,
right,1.0,0.75,0,2,0,2,0,1,0,1,0,0,3,3,5,,,,,,,,,,,,,,,5s,1225.3434026460163,1226.3441382558085,1226.3366673830897,None,1227.336504084058,1231.5449955728836,1227.336504084058,1231.5449955728836,1231.5363987758756,1232.5363057828508,1231.5363987758756,1232.5363057828508,None,,1231.5363987758756,1232.5363057828508,4.2011,1232.6679314500652,None,,,,,,,DEC022,001,2022_Dec_01_1809,2-25_cond_decay_EYE-try,2021.2.3,119.07289355383905,
right,0.75,1.0,1,2,0,2,0,1,0,1,0,0,4,4,1,,,,,,,,,,,,,,,5s,1233.7598816920072,1234.7609074027278,1234.753324631136,None,1235.7531637139618,1238.9694582098164,1235.7531637139618,1238.9694582098164,1238.9694582098164,None,1238.9694582098164,None,None,,1238.9694582098164,None,3.2155,1240.0861185397953,None,,,,,,,DEC022,001,2022_Dec_01_1809,2-25_cond_decay_EYE-try,2021.2.3,119.07289355383905,
left,0.75,1.0,0,2,0,2,0,1,0,1,0,0,5,5,3,,,,,,,,,,,,,,,5s,1241.1852450571023,1242.186278056819,1242.1780215841718,None,1243.1785422619432,1246.0534030711278,1243.1785422619432,1246.0534030711278,1246.0534030711278,None,1246.0534030711278,None,space,0.35032317927107215,1246.0534030711278,None,2.8747,1246.5357382157817,None,,,,,,,DEC022,001,2022_Dec_01_1809,2-25_cond_decay_EYE-try,2021.2.3,119.07289355383905,
right,1.0,0.75,0,2,0,2,0,1,0,1,0,0,6,6,2,,,,,,,,,,,,,,,5s,1247.626930354163,1248.6280907690525,1248.619947758969,None,1249.6196004580706,1252.9869939349592,1249.6196004580706,1252.9869939349592,1252.9781290749088,None,1252.9781290749088,None,space,0.47834882978349924,1252.9781290749088,None,3.3633,1253.585739408154,None,,,,,,,DEC022,001,2022_Dec_01_1809,2-25_cond_decay_EYE-try,2021.2.3,119.07289355383905,
left,0.75,1.0,0,2,0,2,0,1,0,1,0,0,7,7,7,,,,,,,,,,,,,,,5s,1254.6772190099582,1255.6782192359678,1255.6700298651122,None,1256.6698260759003,1257.9112891899422,1256.6698260759003,1257.9112891899422,1257.903337773867,None,1257.903337773867,None,space,0.3854920072481036,1257.903337773867,None,1.2361,1258.418819963932,None,,,,,,,DEC022,001,2022_Dec_01_1809,2-25_cond_decay_EYE-try,2021.2.3,119.07289355383905,
right,1.0,0.75,0,2,0,2,0,1,0,1,0,0,8,8,8,,,,,,,,,,,,,,,5s,1259.5108939241618,1260.5115374941379,1260.4944946067408,None,1261.495001874864,1263.9871068079956,1261.495001874864,1263.9871068079956,1263.9871068079956,None,1263.9871068079956,None,space,0.4505367078818381,1263.9871068079956,None,2.4884,1264.561665527057,None,,,,,,,DEC022,001,2022_Dec_01_1809,2-25_cond_decay_EYE-try,2021.2.3,119.07289355383905,
left,1.0,0.75,1,2,0,2,0,1,0,1,0,0,9,9,9,,,,,,,,,,,,,,,5s,1265.6621852447279,1266.6618579858914,1266.65347875515,None,1267.6537629459053,1270.2280023549683,1267.6537629459053,1270.2280023549683,1270.2280023549683,None,1270.2280023549683,None,space,0.36155045172199607,1270.2280023549683,None,2.5745,1270.718691112008,None,,,,,,,DEC022,001,2022_Dec_01_1809,2-25_cond_decay_EYE-try,2021.2.3,119.07289355383905,
right,1.0,0.75,0,2,0,2,0,1,0,1,0,1,0,10,8,,,,,,,,,,,,,,,5s,1271.8105749520473,1272.8119281390682,1272.803796289023,None,1273.8040321920998,1274.169680756051,1273.8040321920998,1274.169680756051,1274.169680756051,None,1274.169680756051,None,space,0.4841271108016372,1274.169680756051,None,0.3669,1274.7774773258716,None,,,,,,,DEC022,001,2022_Dec_01_1809,2-25_cond_decay_EYE-try,2021.2.3,119.07289355383905,
right,1.0,0.75,0,2,0,2,0,1,0,1,0,1,1,11,5,,,,,,,,,,,,,,,5s,1275.8768294448964,1276.879048652947,1276.870697231032,None,1277.8697334071621,1278.2452649660408,1277.8697334071621,1278.2452649660408,1278.2367196981795,None,1278.2367196981795,None,space,0.34462866093963385,1278.2367196981795,None,0.3699,1278.7104203468189,None,,,,,,,DEC022,001,2022_Dec_01_1809,2-25_cond_decay_EYE-try,2021.2.3,119.07289355383905,
left,0.75,1.0,0,2,0,2,0,1,0,1,0,1,2,12,0,,,,,,,,,,,,,,,5s,1279.802212339826,1280.8034677128308,1280.7950846478343,None,1281.7947656838223,1282.5369357708842,1281.7947656838223,1282.5369357708842,1282.5369357708842,None,1282.5369357708842,None,space,0.3006795458495617,1282.5369357708842,None,0.7364,1282.9623191608116,None,,,,,,,DEC022,001,2022_Dec_01_1809,2-25_cond_decay_EYE-try,2021.2.3,119.07289355383905,
right,1.0,0.75,0,2,0,2,0,1,0,1,0,1,3,13,6,,,,,,,,,,,,,,,5s,1284.068848832976,1285.0707499841228,1285.0537131200545,None,1286.0536815370433,1289.0618445198052,1286.0536815370433,1289.0618445198052,1289.054036208894,None,1289.054036208894,None,space,0.5104339611716568,1289.054036208894,None,3.0017,1289.693795455154,None,,,,,,,DEC022,001,2022_Dec_01_1809,2-25_cond_decay_EYE-try,2021.2.3,119.07289355383905,
right,0.75,1.0,1,2,0,2,0,1,0,1,0,1,4,14,1,,,,,,,,,,,,,,,5s,1290.7791308038868,1291.7788485540077,1291.7705369200557,None,1292.77053366974,1297.411896832753,1292.77053366974,1297.411896832753,1297.4041264457628,None,1297.4041264457628,None,space,0.3691335213370621,1297.4041264457628,None,4.6352,1297.9029354648665,None,,,,,,,DEC022,001,2022_Dec_01_1809,2-25_cond_decay_EYE-try,2021.2.3,119.07289355383905,
left,1.0,0.75,1,2,0,2,0,1,0,1,0,1,5,15,9,,,,,,,,,,,,,,,5s,1298.9941078131087,1299.9955804608762,1299.9872359219007,None,1300.9873827509582,1302.995567177888,1300.9873827509582,1302.995567177888,1302.9869345929474,None,1302.9869345929474,None,space,0.3838693471625447,1302.9869345929474,None,2.0022,1303.49524634704,None,,,,,,,DEC022,001,2022_Dec_01_1809,2-25_cond_decay_EYE-try,2021.2.3,119.07289355383905,
left,0.75,1.0,0,2,0,2,0,1,0,1,0,1,6,16,7,,,,,,,,,,,,,,,5s,1304.5946491481736,1305.59525965387,1305.5870008310303,None,1306.587145794183,1310.4119510757737,1306.587145794183,1310.4119510757737,1310.403397475835,None,1310.403397475835,None,space,0.36919996328651905,1310.403397475835,None,3.8195,1310.9024807908572,None,,,,,,,DEC022,001,2022_Dec_01_1809,2-25_cond_decay_EYE-try,2021.2.3,119.07289355383905,
left,0.75,1.0,0,2,0,2,0,1,0,1,0,1,7,17,4,,,,,,,,,,,,,,,5s,1311.987359691877,1312.9873135401867,1312.979061728809,None,1313.9792582667433,1317.2042127810419,1313.9792582667433,1317.2042127810419,1317.1956051839516,None,1317.1956051839516,None,space,0.5437560169957578,1317.1956051839516,None,3.2183,1317.8694759318605,None,,,,,,,DEC022,001,2022_Dec_01_1809,2-25_cond_decay_EYE-try,2021.2.3,119.07289355383905,
right,1.0,0.75,0,2,0,2,0,1,0,1,0,1,8,18,2,,,,,,,,,,,,,,,5s,1318.9695111038163,1319.9704860690981,1319.9542511878535,None,1320.9544190340675,1325.8961125421338,1320.9544190340675,1325.8961125421338,1325.8873155731708,None,1325.8873155731708,None,space,0.6105881365947425,1325.8873155731708,None,4.9357,1326.6282273950055,None,,,,,,,DEC022,001,2022_Dec_01_1809,2-25_cond_decay_EYE-try,2021.2.3,119.07289355383905,
left,0.75,1.0,0,2,0,2,0,1,0,1,0,1,9,19,3,,,,,,,,,,,,,,,5s,1327.7212135368027,1328.7203395189717,1328.712791425176,None,1329.7127215787768,1334.3545258468948,1329.7127215787768,1334.3545258468948,1334.3545258468948,None,1334.3545258468948,None,space,0.3688414138741791,1334.3545258468948,None,4.6408,1334.8531743967906,None,,,,,,,DEC022,001,2022_Dec_01_1809,2-25_cond_decay_EYE-try,2021.2.3,119.07289355383905,
,,,,2,0,2,0,1,0,1,0,,,,,,,,,,,,,,,,,,,,,,,,,,,,,,,,,,,,,,,,,,,,,DEC022,001,2022_Dec_01_1809,2-25_cond_decay_EYE-try,2021.2.3,119.07289355383905,
left,1.0,0.75,1,2,0,2,0,2,0,2,0,0,0,0,8,,,,,,,,,1335.7447663219646,None,1335.7447663219646,None,1335.7447663219646,None,3s,1339.7111421227455,1340.7120809471235,1340.696244886145,None,1341.6959386928938,1342.4127623769455,1341.6959386928938,1342.4127623769455,1342.4127623769455,None,1342.4127623769455,None,None,,1342.4127623769455,None,0.7103,1343.536461101845,None,,,,,,,DEC022,001,2022_Dec_01_1809,2-25_cond_decay_EYE-try,2021.2.3,119.07289355383905,
right,1.0,0.75,0,2,0,2,0,2,0,2,0,0,1,1,6,,,,,,,,,,,,,,,3s,1344.628044181969,1345.628955497872,1345.6208598758094,None,1346.6209300910123,1348.0460216691718,1346.6209300910123,1348.0460216691718,1348.0376766980626,None,1348.0376766980626,None,space,0.6025927159935236,1348.0376766980626,None,1.4209,1348.7697506188415,None,,,,,,,DEC022,001,2022_Dec_01_1809,2-25_cond_decay_EYE-try,2021.2.3,119.07289355383905,
right,1.0,0.75,0,2,0,2,0,2,0,2,0,0,2,2,4,,,,,,,,,,,,,,,3s,1349.861351000145,1350.862958570011,1350.8546774480492,None,1351.854559381958,1353.4046436641365,1351.854559381958,1353.4046436641365,1353.4046436641365,None,1353.4046436641365,None,None,,1353.4046436641365,None,1.5491,1354.528159888927,None,,,,,,,DEC022,001,2022_Dec_01_1809,2-25_cond_decay_EYE-try,2021.2.3,119.07289355383905,
left,0.75,1.0,0,2,0,2,0,2,0,2,0,0,3,3,0,,,,,,,,,,,,,,,3s,1355.6197946481407,1356.6207537739538,1356.6123704360798,None,1357.6127163358033,1359.0959586361423,1357.6127163358033,1359.0959586361423,1359.0874537038617,None,1359.0874537038617,None,space,0.3691653269343078,1359.0874537038617,None,1.4767,1359.5868883747607,None,,,,,,,DEC022,001,2022_Dec_01_1809,2-25_cond_decay_EYE-try,2021.2.3,119.07289355383905,
left,0.75,1.0,0,2,0,2,0,2,0,2,0,0,4,4,2,,,,,,,,,,,,,,,3s,1360.669969227165,1361.6710543851368,1361.6630339291878,None,1362.6629158179276,1364.0624015801586,1362.6629158179276,1364.0624015801586,1364.0545434970409,1365.0547786518,1364.0545434970409,1365.0547786518,None,,1364.0545434970409,1365.0547786518,1.3981,1365.1869925069623,None,,,,,,,DEC022,001,2022_Dec_01_1809,2-25_cond_decay_EYE-try,2021.2.3,119.07289355383905,
left,0.75,1.0,0,2,0,2,0,2,0,2,0,0,5,5,3,,,,,,,,,,,,,,,3s,1366.2700044801459,1367.2712713340297,1367.2632636600174,None,1368.2624044748954,1368.7547326828353,1368.2624044748954,1368.7547326828353,1368.7547326828353,None,1368.7547326828353,None,space,0.3999817157164216,1368.7547326828353,None,0.4899,1369.2861779290251,None,,,,,,,DEC022,001,2022_Dec_01_1809,2-25_cond_decay_EYE-try,2021.2.3,119.07289355383905,
right,1.0,0.75,0,2,0,2,0,2,0,2,0,0,6,6,1,,,,,,,,,,,,,,,3s,1370.3862726069055,1371.3877506568097,1371.3797732447274,None,1372.3794268271886,1374.2465922050178,1372.3794268271886,1374.2465922050178,1374.2378828688525,None,1374.2378828688525,None,space,0.2524003586731851,1374.2378828688525,None,1.8643,1374.619689308107,None,,,,,,,DEC022,001,2022_Dec_01_1809,2-25_cond_decay_EYE-try,2021.2.3,119.07289355383905,
left,1.0,0.75,1,2,0,2,0,2,0,2,0,0,7,7,5,,,,,,,,,,,,,,,3s,1375.7197494730353,1376.7208433197811,1376.7125952667557,None,1377.7125031077303,1378.2042369609699,1377.7125031077303,1378.2042369609699,1378.195769596845,None,1378.195769596845,None,space,0.41761711705476046,1378.195769596845,None,0.4889,1378.738310159184,None,,,,,,,DEC022,001,2022_Dec_01_1809,2-25_cond_decay_EYE-try,2021.2.3,119.07289355383905,
right,1.0,0.75,0,2,0,2,0,2,0,2,0,0,8,8,7,,,,,,,,,,,,,,,3s,1379.8363627628423,1380.8378707198426,1380.8295385288075,None,1381.8294774177484,1383.2298919777386,1381.8294774177484,1383.2298919777386,1383.2298919777386,None,1383.2298919777386,None,space,0.31043848069384694,1383.2298919777386,None,1.4008,1383.6700637508184,None,,,,,,,DEC022,001,2022_Dec_01_1809,2-25_cond_decay_EYE-try,2021.2.3,119.07289355383905,
right,0.75,1.0,1,2,0,2,0,2,0,2,0,0,9,9,9,,,,,,,,,,,,,,,3s,1384.7615653779358,1385.763108049985,1385.7466910728253,None,1386.7458703541197,1389.5466405288316,1386.7458703541197,1389.5466405288316,1389.5466405288316,None,1389.5466405288316,None,space,0.7103756950236857,1389.5466405288316,None,2.7946,1390.3868591007777,None,,,,,,,DEC022,001,2022_Dec_01_1809,2-25_cond_decay_EYE-try,2021.2.3,119.07289355383905,
right,1.0,0.75,0,2,0,2,0,2,0,2,0,1,0,10,7,,,,,,,,,,,,,,,3s,1391.4864508169703,1392.4886373337358,1392.4715297431685,None,1393.4712204537354,1396.3544489229098,1393.4712204537354,1396.3544489229098,1396.3544489229098,None,1396.3544489229098,None,space,0.39252897584810853,1396.3544489229098,None,2.8789,1396.8709976198152,None,,,,,,,DEC022,001,2022_Dec_01_1809,2-25_cond_decay_EYE-try,2021.2.3,119.07289355383905,
right,0.75,1.0,1,2,0,2,0,2,0,2,0,1,1,11,9,,,,,,,,,,,,,,,3s,1397.969965052791,1398.9715545210056,1398.9633671748452,None,1399.9631952587515,1402.9133672597818,1399.9631952587515,1402.9133672597818,1402.9133672597818,None,1402.9133672597818,None,space,0.4104921226389706,1402.9133672597818,None,2.9489,1403.4540286348201,None,,,,,,,DEC022,001,2022_Dec_01_1809,2-25_cond_decay_EYE-try,2021.2.3,119.07289355383905,
left,1.0,0.75,1,2,0,2,0,2,0,2,0,1,2,12,5,,,,,,,,,,,,,,,3s,1404.5453220410272,1405.546279675793,1405.53772679111,None,1406.538118687924,1407.671878118068,1406.538118687924,1407.671878118068,1407.671878118068,None,1407.671878118068,None,space,0.402224101126194,1407.671878118068,None,1.1279,1408.2041873107664,None,,,,,,,DEC022,001,2022_Dec_01_1809,2-25_cond_decay_EYE-try,2021.2.3,119.07289355383905,
left,0.75,1.0,0,2,0,2,0,2,0,2,0,1,3,13,3,,,,,,,,,,,,,,,3s,1409.2957987301052,1410.2963201790117,1410.287880337797,None,1411.288171841763,1412.930083447136,1411.288171841763,1412.930083447136,1412.9213617211208,None,1412.9213617211208,None,space,0.4256765637546778,1412.9213617211208,None,1.6362,1413.4703590469435,None,,,,,,,DEC022,001,2022_Dec_01_1809,2-25_cond_decay_EYE-try,2021.2.3,119.07289355383905,
right,1.0,0.75,0,2,0,2,0,2,0,2,0,1,4,14,4,,,,,,,,,,,,,,,3s,1414.5708108190447,1415.5712239830755,1415.5629551601596,None,1416.5636608749628,1418.04700365616,1416.5636608749628,1418.04700365616,1418.0382491638884,1419.038289661985,1418.0382491638884,1419.038289661985,None,,1418.0382491638884,1419.038289661985,1.478,1419.170288613066,None,,,,,,,DEC022,001,2022_Dec_01_1809,2-25_cond_decay_EYE-try,2021.2.3,119.07289355383905,
right,1.0,0.75,0,2,0,2,0,2,0,2,0,1,5,15,6,,,,,,,,,,,,,,,3s,1420.2622653068975,1421.2633142760023,1421.2470930949785,None,1422.2464090758003,1424.1131657199003,1422.2464090758003,1424.1131657199003,1424.1131657199003,None,1424.1131657199003,None,space,0.40336637292057276,1424.1131657199003,None,1.865,1424.6454198737629,None,,,,,,,DEC022,001,2022_Dec_01_1809,2-25_cond_decay_EYE-try,2021.2.3,119.07289355383905,
left,0.75,1.0,0,2,0,2,0,2,0,2,0,1,6,16,2,,,,,,,,,,,,,,,3s,1425.737003610935,1426.7381539898925,1426.729997092858,None,1427.729935688898,1428.2054095179774,1427.729935688898,1428.2054095179774,1428.1965629109181,None,1428.1965629109181,None,space,0.4280808321200311,1428.1965629109181,None,0.4694,1428.753584614955,None,,,,,,,DEC022,001,2022_Dec_01_1809,2-25_cond_decay_EYE-try,2021.2.3,119.07289355383905,
left,0.75,1.0,0,2,0,2,0,2,0,2,0,1,7,17,8,,,,,,,,,,,,,,,3s,1429.8371397759765,1430.838219041936,1430.8301411611028,None,1431.8302260660566,1433.0549811660312,1431.8302260660566,1433.0549811660312,1433.0549811660312,None,1433.0549811660312,None,space,0.3691246691159904,1433.0549811660312,None,1.2233,1433.553810985759,None,,,,,,,DEC022,001,2022_Dec_01_1809,2-25_cond_decay_EYE-try,2021.2.3,119.07289355383905,
right,1.0,0.75,0,2,0,2,0,2,0,2,0,1,8,18,1,,,,,,,,,,,,,,,3s,1434.6462591518648,1435.6469727479853,1435.6386763327755,None,1436.62991715502,1438.7719761948101,1436.62991715502,1438.7719761948101,1438.7797378767282,None,1438.7797378767282,None,space,0.29466811288148165,1438.7797378767282,None,2.1428,1439.20421110373,None,,,,,,,DEC022,001,2022_Dec_01_1809,2-25_cond_decay_EYE-try,2021.2.3,119.07289355383905,
left,0.75,1.0,0,2,0,2,0,2,0,2,0,1,9,19,0,,,,,,,,,,,,,,,3s,1440.2962418268435,1441.2970288130455,1441.2888947050087,None,1442.2889664899558,1445.1302614547312,1442.2889664899558,1445.1302614547312,1445.1302614547312,None,1445.1302614547312,None,space,0.4022200689651072,1445.1302614547312,None,2.8408,1445.662172012031,None,,,,,,,DEC022,001,2022_Dec_01_1809,2-25_cond_decay_EYE-try,2021.2.3,119.07289355383905,
,,,,2,0,2,0,2,0,2,0,,,,,,,,,,,,,,,,,,,,,,,,,,,,,,,,,,,,,,,,,,,,,DEC022,001,2022_Dec_01_1809,2-25_cond_decay_EYE-try,2021.2.3,119.07289355383905,
right,0.75,1.0,1,2,0,2,0,3,0,3,0,0,0,0,9,,,,,,,,,1446.553544622846,None,1446.553544622846,None,1446.553544622846,None,10s,1456.0226567108184,1457.0224556988105,1457.0139742200263,None,1458.0136894728057,1460.8138631810434,1458.0136894728057,1460.8138631810434,1460.8138631810434,None,1460.8138631810434,None,space,0.6944830128923059,1460.8138631810434,None,2.8005,1461.6373779298738,None,,,,,,,DEC022,001,2022_Dec_01_1809,2-25_cond_decay_EYE-try,2021.2.3,119.07289355383905,
left,0.75,1.0,0,2,0,2,0,3,0,3,0,0,1,1,0,,,,,,,,,,,,,,,10s,1462.729078324046,1463.7304409579374,1463.722102520056,None,1464.722337952815,1465.6969638299197,1464.722337952815,1465.6969638299197,1465.6969638299197,None,1465.6969638299197,None,space,0.4032034180127084,1465.6969638299197,None,0.9744,1466.229144460056,None,,,,,,,DEC022,001,2022_Dec_01_1809,2-25_cond_decay_EYE-try,2021.2.3,119.07289355383905,
right,1.0,0.75,0,2,0,2,0,3,0,3,0,0,2,2,5,,,,,,,,,,,,,,,10s,1467.3205342618749,1468.3220154670998,1468.313625622075,None,1469.3141002999619,1475.672322798986,1469.3141002999619,1475.672322798986,1475.672322798986,None,1475.672322798986,None,space,0.3863008781336248,1475.672322798986,None,6.3541,1476.187537057791,None,,,,,,,DEC022,001,2022_Dec_01_1809,2-25_cond_decay_EYE-try,2021.2.3,119.07289355383905,
left,1.0,0.75,1,2,0,2,0,3,0,3,0,0,3,3,2,,,,,,,,,,,,,,,10s,1477.2790972618386,1478.280802979134,1478.2728110807948,None,1479.272474961821,1486.2390185599215,1479.272474961821,1486.2390185599215,1486.2390185599215,None,1486.2390185599215,None,space,0.5257371524348855,1486.2390185599215,None,6.968,1486.88939157594,None,,,,,,,DEC022,001,2022_Dec_01_1809,2-25_cond_decay_EYE-try,2021.2.3,119.07289355383905,
right,0.75,1.0,1,2,0,2,0,3,0,3,0,0,4,4,7,,,,,,,,,,,,,,,10s,1487.9873919608071,1488.9894003369845,1488.981048123911,None,1489.980559182819,1499.5726313437335,1489.980559182819,1499.5726313437335,1499.5726313437335,None,1499.5726313437335,None,space,0.5276404554024339,1499.5726313437335,None,9.5908,1500.2294885371812,None,,,,,,,DEC022,001,2022_Dec_01_1809,2-25_cond_decay_EYE-try,2021.2.3,119.07289355383905,
left,0.75,1.0,0,2,0,2,0,3,0,3,0,0,5,5,3,,,,,,,,,,,,,,,10s,1501.3216344718821,1502.322977042757,1502.3147142757662,None,1503.3143901280127,1509.289405958727,1503.3143901280127,1509.289405958727,1509.289405958727,None,1509.289405958727,None,None,,1509.289405958727,None,5.9729,1510.4134490918368,None,,,,,,,DEC022,001,2022_Dec_01_1809,2-25_cond_decay_EYE-try,2021.2.3,119.07289355383905,
right,1.0,0.75,0,2,0,2,0,3,0,3,0,0,6,6,6,,,,,,,,,,,,,,,10s,1511.5046344990842,1512.5061350418255,1512.4978426438756,None,1513.4976202691905,1518.7064897371456,1513.4976202691905,1518.7064897371456,1518.697788408026,None,1518.697788408026,None,space,0.6250245710834861,1518.697788408026,None,5.2024,1519.4546806970611,None,,,,,,,DEC022,001,2022_Dec_01_1809,2-25_cond_decay_EYE-try,2021.2.3,119.07289355383905,
left,0.75,1.0,0,2,0,2,0,3,0,3,0,0,7,7,1,,,,,,,,,,,,,,,10s,1520.5460294480436,1521.547958470881,1521.5397999389097,None,1522.5391532829963,1523.5810028337874,1522.5391532829963,1523.5810028337874,1523.5810028337874,None,1523.5810028337874,None,None,,1523.5810028337874,None,1.0389,1524.7046849778853,None,,,,,,,DEC022,001,2022_Dec_01_1809,2-25_cond_decay_EYE-try,2021.2.3,119.07289355383905,
left,0.75,1.0,0,2,0,2,0,3,0,3,0,0,8,8,8,,,,,,,,,,,,,,,10s,1525.7968140849844,1526.7979475758038,1526.7896720650606,None,1527.7897066869773,1533.4312106617726,1527.7897066869773,1533.4312106617726,1533.4226800948381,1534.4227121109143,1533.4226800948381,1534.4227121109143,None,,1533.4226800948381,1534.4227121109143,5.6374,1534.5479263970628,None,,,,,,,DEC022,001,2022_Dec_01_1809,2-25_cond_decay_EYE-try,2021.2.3,119.07289355383905,
right,1.0,0.75,0,2,0,2,0,3,0,3,0,0,9,9,4,,,,,,,,,,,,,,,10s,1535.647052589804,1536.648025447037,1536.639797466807,None,1537.6397405401804,1543.598424529191,1537.6397405401804,1543.598424529191,1543.598424529191,None,1543.598424529191,None,space,0.46886810194700956,1543.598424529191,None,5.9583,1544.1966514601372,None,,,,,,,DEC022,001,2022_Dec_01_1809,2-25_cond_decay_EYE-try,2021.2.3,119.07289355383905,
right,0.75,1.0,1,2,0,2,0,3,0,3,0,1,0,10,7,,,,,,,,,,,,,,,10s,1545.288303446956,1546.289728547912,1546.2814834499732,None,1547.281897361856,1555.131785591133,1547.281897361856,1555.131785591133,1555.1230183257721,None,1555.1230183257721,None,space,0.38573139905929565,1555.1230183257721,None,7.8435,1555.6382582709193,None,,,,,,,DEC022,001,2022_Dec_01_1809,2-25_cond_decay_EYE-try,2021.2.3,119.07289355383905,
left,1.0,0.75,1,2,0,2,0,3,0,3,0,1,1,11,2,,,,,,,,,,,,,,,10s,1556.7056188457645,1557.7064646449871,1557.6903821271844,None,1558.6895994618535,1568.1817740867846,1558.6895994618535,1568.1817740867846,1568.1817740867846,None,1568.1817740867846,None,space,0.6694603911601007,1568.1817740867846,None,9.4849,1568.9800063171424,None,,,,,,,DEC022,001,2022_Dec_01_1809,2-25_cond_decay_EYE-try,2021.2.3,119.07289355383905,
right,1.0,0.75,0,2,0,2,0,3,0,3,0,1,2,12,9,,,,,,,,,,,,,,,10s,1570.0724218860269,1571.0735711879097,1571.0645538410172,None,1572.0650967299007,1579.957161696162,1572.0650967299007,1579.957161696162,1579.9485073317774,None,1579.9485073317774,None,space,0.5666574900969863,1579.9485073317774,None,7.8849,1580.6389047829434,None,,,,,,,DEC022,001,2022_Dec_01_1809,2-25_cond_decay_EYE-try,2021.2.3,119.07289355383905,
right,1.0,0.75,0,2,0,2,0,3,0,3,0,1,3,13,4,,,,,,,,,,,,,,,10s,1581.7391749639064,1582.7399534857832,1582.7238285718486,None,1583.7232779040933,1589.1981880627573,1583.7232779040933,1589.1981880627573,1589.1981880627573,None,1589.1981880627573,None,None,,1589.1981880627573,None,5.4715,1590.3222961309366,None,,,,,,,DEC022,001,2022_Dec_01_1809,2-25_cond_decay_EYE-try,2021.2.3,119.07289355383905,
right,1.0,0.75,0,2,0,2,0,3,0,3,0,1,4,14,6,,,,,,,,,,,,,,,10s,1591.41465491103,1592.415220821742,1592.4063603878021,None,1593.4071577419527,1594.3240407449193,1593.4071577419527,1594.3240407449193,1594.315288737882,1595.3151874169707,1594.315288737882,1595.3151874169707,None,,1594.315288737882,1595.3151874169707,0.9104,1595.4394218437374,None,,,,,,,DEC022,001,2022_Dec_01_1809,2-25_cond_decay_EYE-try,2021.2.3,119.07289355383905,
left,0.75,1.0,0,2,0,2,0,3,0,3,0,1,5,15,1,,,,,,,,,,,,,,,10s,1596.54720102204,1597.5490266969427,1597.5318946498446,None,1598.5323233609088,1605.4239362538792,1598.5323233609088,1605.4239362538792,1605.4239362538792,None,1605.4239362538792,None,None,,1605.4239362538792,None,6.8899,1606.5392254567705,None,,,,,,,DEC022,001,2022_Dec_01_1809,2-25_cond_decay_EYE-try,2021.2.3,119.07289355383905,
right,1.0,0.75,0,2,0,2,0,3,0,3,0,1,6,16,5,,,,,,,,,,,,,,,10s,1607.6389428367838,1608.640117444098,1608.6316634961404,None,1609.6317075579427,1613.3237504428253,1609.6317075579427,1613.3237504428253,1613.3237504428253,None,1613.3237504428253,None,space,0.5027118721045554,1613.3237504428253,None,3.6887,1613.9554377738386,None,,,,,,,DEC022,001,2022_Dec_01_1809,2-25_cond_decay_EYE-try,2021.2.3,119.07289355383905,
