attn_cue,left_ob,right_ob,congruent,runs.thisRepN,runs.thisTrialN,runs.thisN,runs.thisIndex,blocks.thisRepN,blocks.thisTrialN,blocks.thisN,blocks.thisIndex,trials.thisRepN,trials.thisTrialN,trials.thisN,trials.thisIndex,welcome.started,welcome.stopped,text_2.started,text_2.stopped,init_key_resp.keys,init_key_resp.rt,init_key_resp.started,init_key_resp.stopped,text_3.started,text_3.stopped,text_4.started,text_4.stopped,text_5.started,text_5.stopped,block_num,texter.started,texter.stopped,cross.started,cross.stopped,left_star.started,left_star.stopped,right_star.started,right_star.stopped,left_2.started,left_2.stopped,right_2.started,right_2.stopped,key_resp.keys,key_resp.rt,key_resp.started,key_resp.stopped,Rand Tim,text.started,text.stopped,end.started,end.stopped,text_6.started,text_6.stopped,text_7.started,text_7.stopped,participant,session,date,expName,psychopyVersion,frameRate,
,,,,,,,,,,,,,,,,361.6129209550563,None,361.6129209550563,None,space,3.645425623981282,361.6129209550563,None,,,,,,,,,,,,,,,,,,,,,,,,,,,,,,,,,DEC021,001,2022_Nov_12_1037,2-25_cond_decay_EYE-try,2021.2.3,120.20599136915529,
right,1.0,0.75,0,0,0,0,0,0,0,0,0,0,0,0,7,,,,,,,,,365.279009551974,None,365.279009551974,None,365.279009551974,None,5s,369.08851200994104,370.08911886205897,370.0810667970218,None,371.0804552799091,373.8561009389814,371.0804552799091,373.8561009389814,373.8473662820179,None,373.8473662820179,None,space,0.5177265990059823,373.8473662820179,None,2.7682,374.5040726319421,None,,,,,,,DEC021,001,2022_Nov_12_1037,2-25_cond_decay_EYE-try,2021.2.3,120.20599136915529,
left,0.75,1.0,0,0,0,0,0,0,0,0,0,0,1,1,8,,,,,,,,,,,,,,,5s,375.55535064684227,376.55551190604456,376.54709652997553,None,377.5471168179065,381.8471672348678,377.5471168179065,381.8471672348678,381.8394815099891,None,381.8394815099891,None,space,0.5253227059729397,381.8394815099891,None,4.2945,382.49591212393716,None,,,,,,,DEC021,001,2022_Nov_12_1037,2-25_cond_decay_EYE-try,2021.2.3,120.20599136915529,
left,0.75,1.0,0,0,0,0,0,0,0,0,0,0,2,2,9,,,,,,,,,,,,,,,5s,383.54622888495214,384.54761921288446,384.53930597705767,None,385.53957595396787,389.01478827302344,385.53957595396787,389.01478827302344,389.01478827302344,None,389.01478827302344,None,space,0.4101007680874318,389.01478827302344,None,3.4708,389.55465237097815,None,,,,,,,DEC021,001,2022_Nov_12_1037,2-25_cond_decay_EYE-try,2021.2.3,120.20599136915529,
right,1.0,0.75,0,0,0,0,0,0,0,0,0,0,3,3,5,,,,,,,,,,,,,,,5s,390.6133077680133,391.6146783558652,391.60656951298006,None,392.60549506288953,396.87255270802416,392.60549506288953,396.87255270802416,396.87255270802416,None,396.87255270802416,None,space,0.6110008920077235,396.87255270802416,None,4.262,397.6127547239885,None,,,,,,,DEC021,001,2022_Nov_12_1037,2-25_cond_decay_EYE-try,2021.2.3,120.20599136915529,
right,1.0,0.75,0,0,0,0,0,0,0,0,0,0,4,4,4,,,,,,,,,,,,,,,5s,398.6628233490046,399.6638915129006,399.6473056890536,None,400.65629966696724,403.3644900729414,400.65629966696724,403.3644900729414,403.35592733183876,None,403.35592733183876,None,space,0.44499665102921426,403.35592733183876,None,2.7081,403.929583361838,None,,,,,,,DEC021,001,2022_Nov_12_1037,2-25_cond_decay_EYE-try,2021.2.3,120.20599136915529,
left,0.75,1.0,0,0,0,0,0,0,0,0,0,0,5,5,1,,,,,,,,,,,,,,,5s,404.9879717938602,405.98959586699493,405.97350298496895,None,406.9733291340526,409.66417909483425,406.9733291340526,409.66417909483425,409.66417909483425,None,409.66417909483425,None,space,0.3689842480234802,409.66417909483425,None,2.6911,410.1627802278381,None,,,,,,,DEC021,001,2022_Nov_12_1037,2-25_cond_decay_EYE-try,2021.2.3,120.20599136915529,
left,0.75,1.0,0,0,0,0,0,0,0,0,0,0,6,6,3,,,,,,,,,,,,,,,5s,411.2213728360366,412.222426262917,412.21431548683904,None,413.2143684278708,416.1143859180156,413.2143684278708,416.1143859180156,416.1061425160151,None,416.1061425160151,None,space,0.39412699406966567,416.1061425160151,None,2.8953,416.6300045440439,None,,,,,,,DEC021,001,2022_Nov_12_1037,2-25_cond_decay_EYE-try,2021.2.3,120.20599136915529,
right,1.0,0.75,0,0,0,0,0,0,0,0,0,0,7,7,6,,,,,,,,,,,,,,,5s,417.6878480759915,418.68948291102424,418.6812614330556,None,419.6811567218974,419.9398065698333,419.6811567218974,419.9398065698333,419.9309352650307,None,419.9309352650307,None,space,0.7112958361394703,419.9309352650307,None,0.2519,420.7714623748325,None,,,,,,,DEC021,001,2022_Nov_12_1037,2-25_cond_decay_EYE-try,2021.2.3,120.20599136915529,
left,1.0,0.75,1,0,0,0,0,0,0,0,0,0,8,8,0,,,,,,,,,,,,,,,5s,421.82226308295503,422.8232312579639,422.81519934604876,None,423.81433225004,426.6143238309305,423.81433225004,426.6143238309305,426.60658057802357,None,426.60658057802357,None,space,0.4607652041595429,426.60658057802357,None,2.7961,427.1965099379886,None,,,,,,,DEC021,001,2022_Nov_12_1037,2-25_cond_decay_EYE-try,2021.2.3,120.20599136915529,
right,1.0,0.75,0,0,0,0,0,0,0,0,0,0,9,9,2,,,,,,,,,,,,,,,5s,428.2552537219599,429.255970970029,429.2486662189476,None,430.2480550969485,432.38190423790365,430.2480550969485,432.38190423790365,432.38190423790365,None,432.38190423790365,None,space,0.35008057998493314,432.38190423790365,None,2.1333,432.8633556079585,None,,,,,,,DEC021,001,2022_Nov_12_1037,2-25_cond_decay_EYE-try,2021.2.3,120.20599136915529,
left,0.75,1.0,0,0,0,0,0,0,0,0,0,1,0,10,8,,,,,,,,,,,,,,,5s,433.92176039284095,434.9230544338934,434.9144459939562,None,435.9152083499357,438.3143258099444,435.9152083499357,438.3143258099444,438.3068493469618,None,438.3068493469618,None,space,0.39979021716862917,438.3068493469618,None,2.3943,438.83885763399303,None,,,,,,,DEC021,001,2022_Nov_12_1037,2-25_cond_decay_EYE-try,2021.2.3,120.20599136915529,
right,1.0,0.75,0,0,0,0,0,0,0,0,0,1,1,11,5,,,,,,,,,,,,,,,5s,439.89721136703156,440.89813832286745,440.89009552192874,None,441.8899327979889,444.08987271995284,441.8899327979889,444.08987271995284,444.0813156829681,None,444.0813156829681,None,space,0.360968085937202,444.0813156829681,None,2.1956,444.5724284918979,None,,,,,,,DEC021,001,2022_Nov_12_1037,2-25_cond_decay_EYE-try,2021.2.3,120.20599136915529,
left,0.75,1.0,0,0,0,0,0,0,0,0,0,1,2,12,3,,,,,,,,,,,,,,,5s,445.6221332109999,446.6238850809168,446.61555281304754,None,447.6145379310474,450.723157919012,447.6145379310474,450.723157919012,450.71449992689304,None,450.71449992689304,None,space,0.35294199292548,450.71449992689304,None,3.1043,451.1968801859766,None,,,,,,,DEC021,001,2022_Nov_12_1037,2-25_cond_decay_EYE-try,2021.2.3,120.20599136915529,
left,0.75,1.0,0,0,0,0,0,0,0,0,0,1,3,13,9,,,,,,,,,,,,,,,5s,452.2467178099323,453.2478589399252,453.23996954993345,None,454.24003132293,457.39798650704324,454.24003132293,457.39798650704324,457.38961032102816,None,457.38961032102816,None,space,0.3760375559795648,457.38961032102816,None,3.1552,457.8974096700549,None,,,,,,,DEC021,001,2022_Nov_12_1037,2-25_cond_decay_EYE-try,2021.2.3,120.20599136915529,
right,1.0,0.75,0,0,0,0,0,0,0,0,0,1,4,14,4,,,,,,,,,,,,,,,5s,458.9474465169478,459.9479069649242,459.9395636629779,None,460.9398406818509,465.58978271088563,460.9398406818509,465.58978271088563,465.58978271088563,None,465.58978271088563,None,space,0.3254055129364133,465.58978271088563,None,4.6459,466.0471724369563,None,,,,,,,DEC021,001,2022_Nov_12_1037,2-25_cond_decay_EYE-try,2021.2.3,120.20599136915529,
right,1.0,0.75,0,0,0,0,0,0,0,0,0,1,5,15,6,,,,,,,,,,,,,,,5s,467.09725248697214,468.09880265197717,468.0906703870278,None,469.0897569388617,472.5151961259544,469.0897569388617,472.5151961259544,472.5064179019537,None,472.5064179019537,None,space,0.386401086114347,472.5064179019537,None,3.421,473.0217721259687,None,,,,,,,DEC021,001,2022_Nov_12_1037,2-25_cond_decay_EYE-try,2021.2.3,120.20599136915529,
right,0.75,1.0,1,0,0,0,0,0,0,0,0,1,6,16,7,,,,,,,,,,,,,,,5s,474.0805665990338,475.0815540039912,475.0732663059607,None,476.0733775028493,479.31544690486044,476.0733775028493,479.31544690486044,479.31544690486044,None,479.31544690486044,None,space,0.4689128091558814,479.31544690486044,None,3.2407,479.91407910804264,None,,,,,,,DEC021,001,2022_Nov_12_1037,2-25_cond_decay_EYE-try,2021.2.3,120.20599136915529,
left,0.75,1.0,0,0,0,0,0,0,0,0,0,1,7,17,1,,,,,,,,,,,,,,,5s,480.97249650699086,481.97358785988763,481.96520355786197,None,482.9652417639736,485.49041713704355,482.9652417639736,485.49041713704355,485.49041713704355,None,485.49041713704355,None,space,0.36108683003112674,485.49041713704355,None,2.5212,485.9805051309522,None,,,,,,,DEC021,001,2022_Nov_12_1037,2-25_cond_decay_EYE-try,2021.2.3,120.20599136915529,
left,1.0,0.75,1,0,0,0,0,0,0,0,0,1,8,18,0,,,,,,,,,,,,,,,5s,487.03128545195796,488.03245816286653,488.02429514890537,None,489.0243904418312,491.39041256485507,489.0243904418312,491.39041256485507,491.39041256485507,None,491.39041256485507,None,space,0.47713774302974343,491.39041256485507,None,2.3637,491.9972936878912,None,,,,,,,DEC021,001,2022_Nov_12_1037,2-25_cond_decay_EYE-try,2021.2.3,120.20599136915529,
right,1.0,0.75,0,0,0,0,0,0,0,0,0,1,9,19,2,,,,,,,,,,,,,,,5s,493.05616146395914,494.0575997128617,494.0408062718343,None,495.04007996385917,496.27344328793697,495.04007996385917,496.27344328793697,496.27344328793697,None,496.27344328793697,None,space,0.39497200190089643,496.27344328793697,None,1.2302,496.79728478891775,None,,,,,,,DEC021,001,2022_Nov_12_1037,2-25_cond_decay_EYE-try,2021.2.3,120.20599136915529,
,,,,0,0,0,0,0,0,0,0,,,,,,,,,,,,,,,,,,,,,,,,,,,,,,,,,,,,,,,,,,,,,DEC021,001,2022_Nov_12_1037,2-25_cond_decay_EYE-try,2021.2.3,120.20599136915529,
left,0.75,1.0,0,0,0,0,0,1,0,1,0,0,0,0,1,,,,,,,,,497.6896271528676,None,497.6896271528676,None,497.6896271528676,None,3s,499.82236999599263,500.8241402988788,500.81599895702675,None,501.8161368370056,502.93221577000804,501.8161368370056,502.93221577000804,502.93221577000804,None,502.93221577000804,None,space,0.31103977491147816,502.93221577000804,None,1.1119,503.37264320696704,None,,,,,,,DEC021,001,2022_Nov_12_1037,2-25_cond_decay_EYE-try,2021.2.3,120.20599136915529,
right,1.0,0.75,0,0,0,0,0,1,0,1,0,0,1,1,0,,,,,,,,,,,,,,,3s,504.43104488705285,505.4323808059562,505.41588059603237,None,506.41548259486444,508.93252729089,506.41548259486444,508.93252729089,508.93252729089,None,508.93252729089,None,space,0.3360248780809343,508.93252729089,None,2.5145,509.39802604191937,None,,,,,,,DEC021,001,2022_Nov_12_1037,2-25_cond_decay_EYE-try,2021.2.3,120.20599136915529,
right,1.0,0.75,0,0,0,0,0,1,0,1,0,0,2,2,9,,,,,,,,,,,,,,,3s,510.4561181848403,511.45764368004166,511.4486015578732,None,512.4496160878334,514.3903256689664,512.4496160878334,514.3903256689664,514.3903256689664,None,514.3903256689664,None,space,0.30256270291283727,514.3903256689664,None,1.9403,514.8224549998995,None,,,,,,,DEC021,001,2022_Nov_12_1037,2-25_cond_decay_EYE-try,2021.2.3,120.20599136915529,
left,1.0,0.75,1,0,0,0,0,1,0,1,0,0,3,3,2,,,,,,,,,,,,,,,3s,515.8811602429487,516.8821269809268,516.8736326619983,None,517.8739557359368,518.3238872659858,517.8739557359368,518.3238872659858,518.3159920410253,519.315187175991,518.3159920410253,519.315187175991,None,,518.3159920410253,519.315187175991,0.4437,519.4556761388667,None,,,,,,,DEC021,001,2022_Nov_12_1037,2-25_cond_decay_EYE-try,2021.2.3,120.20599136915529,
left,0.75,1.0,0,0,0,0,0,1,0,1,0,0,4,4,7,,,,,,,,,,,,,,,3s,520.4987053668592,521.4991863379255,521.4908374650404,None,522.4909568780567,525.4491459829733,522.4909568780567,525.4491459829733,525.4404120789841,None,525.4404120789841,None,space,0.3607332019601017,525.4404120789841,None,2.9509,525.9316785458941,None,,,,,,,DEC021,001,2022_Nov_12_1037,2-25_cond_decay_EYE-try,2021.2.3,120.20599136915529,
right,1.0,0.75,0,0,0,0,0,1,0,1,0,0,5,5,8,,,,,,,,,,,,,,,3s,526.9809940720443,527.9830286409706,527.9736558648292,None,528.9737320230342,531.3242234948557,528.9737320230342,531.3242234948557,531.3153343028389,None,531.3153343028389,None,space,0.3846802820917219,531.3153343028389,None,2.3445,531.8308775359765,None,,,,,,,DEC021,001,2022_Nov_12_1037,2-25_cond_decay_EYE-try,2021.2.3,120.20599136915529,
left,0.75,1.0,0,0,0,0,0,1,0,1,0,0,6,6,5,,,,,,,,,,,,,,,3s,532.8897228420246,533.8909146268852,533.8824233480264,None,534.8824147428386,535.9578854409046,534.8824147428386,535.9578854409046,535.9578854409046,None,535.9578854409046,None,space,0.3998522150795907,535.9578854409046,None,1.0728,536.4897799850442,None,,,,,,,DEC021,001,2022_Nov_12_1037,2-25_cond_decay_EYE-try,2021.2.3,120.20599136915529,
right,1.0,0.75,0,0,0,0,0,1,0,1,0,0,7,7,6,,,,,,,,,,,,,,,3s,537.5477541920263,538.5490759969689,538.5408820619341,None,539.5406790159177,540.4993923949078,539.5406790159177,540.4993923949078,540.4993923949078,None,540.4993923949078,None,space,0.3271784051321447,540.4993923949078,None,0.9541,540.9567025299184,None,,,,,,,DEC021,001,2022_Nov_12_1037,2-25_cond_decay_EYE-try,2021.2.3,120.20599136915529,
left,0.75,1.0,0,0,0,0,0,1,0,1,0,0,8,8,3,,,,,,,,,,,,,,,3s,542.0148691069335,543.0159210709389,543.0079876410309,None,544.0076347859576,545.2997092588339,544.0076347859576,545.2997092588339,545.2997092588339,None,545.2997092588339,None,space,0.36077049700543284,545.2997092588339,None,1.2921,545.7898295898922,None,,,,,,,DEC021,001,2022_Nov_12_1037,2-25_cond_decay_EYE-try,2021.2.3,120.20599136915529,
right,0.75,1.0,1,0,0,0,0,1,0,1,0,0,9,9,4,,,,,,,,,,,,,,,3s,546.8486479129642,547.849285986973,547.8409969599452,None,548.8409861819819,549.7076990108471,548.8409861819819,549.7076990108471,549.6990878018551,None,549.6990878018551,None,space,0.3835862090345472,549.6990878018551,None,0.8627,550.2150659139734,None,,,,,,,DEC021,001,2022_Nov_12_1037,2-25_cond_decay_EYE-try,2021.2.3,120.20599136915529,
right,0.75,1.0,1,0,0,0,0,1,0,1,0,1,0,10,4,,,,,,,,,,,,,,,3s,551.2650973049458,552.2658628679346,552.2496064838488,None,553.2497108120006,555.7576936760452,553.2497108120006,555.7576936760452,555.7576936760452,None,555.7576936760452,None,space,0.43536650598980486,555.7576936760452,None,2.506,556.3232857829425,None,,,,,,,DEC021,001,2022_Nov_12_1037,2-25_cond_decay_EYE-try,2021.2.3,120.20599136915529,
right,1.0,0.75,0,0,0,0,0,1,0,1,0,1,1,11,8,,,,,,,,,,,,,,,3s,557.3813846718986,558.3827742908616,558.374359279871,None,559.3743834448978,560.6493717718404,559.3743834448978,560.6493717718404,560.6493717718404,None,560.6493717718404,None,space,0.40292678587138653,560.6493717718404,None,1.2712,561.181999306893,None,,,,,,,DEC021,001,2022_Nov_12_1037,2-25_cond_decay_EYE-try,2021.2.3,120.20599136915529,
right,1.0,0.75,0,0,0,0,0,1,0,1,0,1,2,12,9,,,,,,,,,,,,,,,3s,562.2399549589027,563.2407176359557,563.2323758518323,None,564.2323384298943,564.8832123340108,564.2323384298943,564.8832123340108,564.8745613729116,None,564.8745613729116,None,space,0.3859757869504392,564.8745613729116,None,0.6444,565.3900534349959,None,,,,,,,DEC021,001,2022_Nov_12_1037,2-25_cond_decay_EYE-try,2021.2.3,120.20599136915529,
left,0.75,1.0,0,0,0,0,0,1,0,1,0,1,3,13,7,,,,,,,,,,,,,,,3s,566.4482073669787,567.4494996690191,567.4414371140301,None,568.4416961928364,570.8246806999668,568.4416961928364,570.8246806999668,570.8160023489036,None,570.8160023489036,None,space,0.3610489678103477,570.8160023489036,None,2.3756,571.3061656409409,None,,,,,,,DEC021,001,2022_Nov_12_1037,2-25_cond_decay_EYE-try,2021.2.3,120.20599136915529,
left,1.0,0.75,1,0,0,0,0,1,0,1,0,1,4,14,2,,,,,,,,,,,,,,,3s,572.3644914599136,573.3666634180117,573.357610790059,None,574.3583246339113,574.5334120208863,574.3583246339113,574.5334120208863,574.5334120208863,None,574.5334120208863,None,None,,574.5334120208863,None,0.1729,575.6651756749488,None,,,,,,,DEC021,001,2022_Nov_12_1037,2-25_cond_decay_EYE-try,2021.2.3,120.20599136915529,
right,1.0,0.75,0,0,0,0,0,1,0,1,0,1,5,15,0,,,,,,,,,,,,,,,3s,576.7152419688646,577.7158406209201,577.7080051240046,None,578.7082588989288,580.2082144590095,578.7082588989288,580.2082144590095,580.1994808998425,None,580.1994808998425,None,space,0.4675733530893922,580.1994808998425,None,1.4936,580.7986710630357,None,,,,,,,DEC021,001,2022_Nov_12_1037,2-25_cond_decay_EYE-try,2021.2.3,120.20599136915529,
left,0.75,1.0,0,0,0,0,0,1,0,1,0,1,6,16,3,,,,,,,,,,,,,,,3s,581.8565760669298,582.8584248370025,582.8501905950252,None,583.849347302923,586.6162319479045,583.849347302923,586.6162319479045,586.6162319479045,None,586.6162319479045,None,space,0.377990853972733,586.6162319479045,None,2.7608,587.1236273490358,None,,,,,,,DEC021,001,2022_Nov_12_1037,2-25_cond_decay_EYE-try,2021.2.3,120.20599136915529,
left,0.75,1.0,0,0,0,0,0,1,0,1,0,1,7,17,1,,,,,,,,,,,,,,,3s,588.1821857339237,589.1833527928684,589.1750779850408,None,590.1744286208414,590.8996031358838,590.1744286208414,590.8996031358838,590.8911211900413,None,590.8911211900413,None,space,0.5611388329416513,590.8911211900413,None,0.7217,591.5818425349426,None,,,,,,,DEC021,001,2022_Nov_12_1037,2-25_cond_decay_EYE-try,2021.2.3,120.20599136915529,
right,1.0,0.75,0,0,0,0,0,1,0,1,0,1,8,18,6,,,,,,,,,,,,,,,3s,592.6331505719572,593.6333536000457,593.6252593400422,None,594.6251159398817,596.033386353869,594.6251159398817,596.033386353869,596.0248249620199,None,596.0248249620199,None,space,0.36158798914402723,596.0248249620199,None,1.4006,596.5151812259573,None,,,,,,,DEC021,001,2022_Nov_12_1037,2-25_cond_decay_EYE-try,2021.2.3,120.20599136915529,
left,0.75,1.0,0,0,0,0,0,1,0,1,0,1,9,19,5,,,,,,,,,,,,,,,3s,597.5734453890473,598.5750060479622,598.5666423479561,None,599.567071453901,602.1329041379504,599.567071453901,602.1329041379504,602.1253011228982,None,602.1253011228982,None,space,0.34990386199206114,602.1253011228982,None,2.5628,602.606741821859,None,,,,,,,DEC021,001,2022_Nov_12_1037,2-25_cond_decay_EYE-try,2021.2.3,120.20599136915529,
,,,,0,0,0,0,1,0,1,0,,,,,,,,,,,,,,,,,,,,,,,,,,,,,,,,,,,,,,,,,,,,,DEC021,001,2022_Nov_12_1037,2-25_cond_decay_EYE-try,2021.2.3,120.20599136915529,
left,0.75,1.0,0,0,0,0,0,2,0,2,0,0,0,0,0,,,,,,,,,603.4982305988669,None,603.4982305988669,None,603.4982305988669,None,1s,605.3901094398461,606.3914049318992,606.3751838619355,None,607.3749976279214,608.2998903528787,607.3749976279214,608.2998903528787,608.2998903528787,None,608.2998903528787,None,space,0.2863112729974091,608.2998903528787,None,0.9187,608.7159176929854,None,,,,,,,DEC021,001,2022_Nov_12_1037,2-25_cond_decay_EYE-try,2021.2.3,120.20599136915529,
left,0.75,1.0,0,0,0,0,0,2,0,2,0,0,1,1,7,,,,,,,,,,,,,,,1s,609.77392585692,610.7751262148377,610.7671805310529,None,611.7666842169128,612.6166368010454,611.7666842169128,612.6166368010454,612.6166368010454,None,612.6166368010454,None,space,0.33609987096861005,612.6166368010454,None,0.8505,613.0818946228828,None,,,,,,,DEC021,001,2022_Nov_12_1037,2-25_cond_decay_EYE-try,2021.2.3,120.20599136915529,
left,1.0,0.75,1,0,0,0,0,2,0,2,0,0,2,2,2,,,,,,,,,,,,,,,1s,614.1407897919416,615.1416112550069,615.1338346910197,None,616.1337908199057,616.7168992229272,616.1337908199057,616.7168992229272,616.7168992229272,None,616.7168992229272,None,space,0.294595057843253,616.7168992229272,None,0.5843,617.1401120310184,None,,,,,,,DEC021,001,2022_Nov_12_1037,2-25_cond_decay_EYE-try,2021.2.3,120.20599136915529,
right,1.0,0.75,0,0,0,0,0,2,0,2,0,0,3,3,8,,,,,,,,,,,,,,,1s,618.1900427888613,619.1919301808812,619.1839216409717,None,620.1829809269402,620.6247758639511,620.1829809269402,620.6247758639511,620.6171762528829,None,620.6171762528829,None,space,0.3275095960125327,620.6171762528829,None,0.4385,621.0738841788843,None,,,,,,,DEC021,001,2022_Nov_12_1037,2-25_cond_decay_EYE-try,2021.2.3,120.20599136915529,
left,0.75,1.0,0,0,0,0,0,2,0,2,0,0,4,4,5,,,,,,,,,,,,,,,1s,622.1326026348397,623.1330073939171,623.1256953049451,None,624.1248480358627,624.3499068878591,624.1248480358627,624.3499068878591,624.3499068878591,None,624.3499068878591,None,space,0.3508660381194204,624.3499068878591,None,0.2213,624.8324774939101,None,,,,,,,DEC021,001,2022_Nov_12_1037,2-25_cond_decay_EYE-try,2021.2.3,120.20599136915529,
left,0.75,1.0,0,0,0,0,0,2,0,2,0,0,5,5,6,,,,,,,,,,,,,,,1s,625.8817261189688,626.8830517029855,626.8748586408328,None,627.8755546410102,628.2663485119119,627.8755546410102,628.2663485119119,628.2663485119119,None,628.2663485119119,None,space,0.31987464986741543,628.2663485119119,None,0.3873,628.7156597890425,None,,,,,,,DEC021,001,2022_Nov_12_1037,2-25_cond_decay_EYE-try,2021.2.3,120.20599136915529,
left,0.75,1.0,0,0,0,0,0,2,0,2,0,0,6,6,4,,,,,,,,,,,,,,,1s,629.7740112659521,630.7748905799817,630.7668644669466,None,631.767340933904,632.5003053760156,631.767340933904,632.5003053760156,632.5003053760156,None,632.5003053760156,None,space,0.34405175200663507,632.5003053760156,None,0.7312,632.9744883070234,None,,,,,,,DEC021,001,2022_Nov_12_1037,2-25_cond_decay_EYE-try,2021.2.3,120.20599136915529,
right,1.0,0.75,0,0,0,0,0,2,0,2,0,0,7,7,1,,,,,,,,,,,,,,,1s,634.0322963979561,635.033723335946,635.0254453299567,None,636.0256826288532,636.2586107319221,636.0256826288532,636.2586107319221,636.2586107319221,None,636.2586107319221,None,space,0.6339096459560096,636.2586107319221,None,0.2333,637.0236115120351,None,,,,,,,DEC021,001,2022_Nov_12_1037,2-25_cond_decay_EYE-try,2021.2.3,120.20599136915529,
right,0.75,1.0,1,0,0,0,0,2,0,2,0,0,8,8,3,,,,,,,,,,,,,,,1s,638.0741957910359,639.0755349828396,639.0672097250354,None,640.0665170599241,641.0174655378796,640.0665170599241,641.0174655378796,641.0087535090279,None,641.0087535090279,None,space,0.30853052996098995,641.0087535090279,None,0.9458,641.4490336449817,None,,,,,,,DEC021,001,2022_Nov_12_1037,2-25_cond_decay_EYE-try,2021.2.3,120.20599136915529,
right,1.0,0.75,0,0,0,0,0,2,0,2,0,0,9,9,9,,,,,,,,,,,,,,,1s,642.5076818589587,643.5086441598833,643.5001773149706,None,644.4926132119726,644.9334552290384,644.4926132119726,644.9334552290384,644.9334552290384,None,644.9334552290384,None,space,0.38391283387318254,644.9334552290384,None,0.4351,645.4487679658923,None,,,,,,,DEC021,001,2022_Nov_12_1037,2-25_cond_decay_EYE-try,2021.2.3,120.20599136915529,
left,1.0,0.75,1,0,0,0,0,2,0,2,0,1,0,10,2,,,,,,,,,,,,,,,1s,646.5074603508692,647.5082258910406,647.4925667778589,None,648.4916803960223,649.359224144835,648.4916803960223,649.359224144835,649.359224144835,None,649.359224144835,None,space,0.3006809090729803,649.359224144835,None,0.8648,649.7910908439662,None,,,,,,,DEC021,001,2022_Nov_12_1037,2-25_cond_decay_EYE-try,2021.2.3,120.20599136915529,
right,0.75,1.0,1,0,0,0,0,2,0,2,0,1,1,11,3,,,,,,,,,,,,,,,1s,650.8496634778567,651.8508355538361,651.8422273600008,None,652.842662798008,653.1004668679088,652.842662798008,653.1004668679088,653.0918354508467,None,653.0918354508467,None,space,0.4092320599593222,653.0918354508467,None,0.2533,653.6323140128516,None,,,,,,,DEC021,001,2022_Nov_12_1037,2-25_cond_decay_EYE-try,2021.2.3,120.20599136915529,
left,0.75,1.0,0,0,0,0,0,2,0,2,0,1,2,12,4,,,,,,,,,,,,,,,1s,654.6909259138629,655.6926011419855,655.6835939900484,None,656.6833876809105,657.5838206978515,656.6833876809105,657.5838206978515,657.5752859239001,None,657.5752859239001,None,space,0.2673330041579902,657.5752859239001,None,0.8989,657.97466113884,None,,,,,,,DEC021,001,2022_Nov_12_1037,2-25_cond_decay_EYE-try,2021.2.3,120.20599136915529,
right,1.0,0.75,0,0,0,0,0,2,0,2,0,1,3,13,8,,,,,,,,,,,,,,,1s,659.032326777,660.0337942719925,660.0255630880129,None,661.0254707329441,662.0003951559775,661.0254707329441,662.0003951559775,662.0003951559775,None,662.0003951559775,None,space,0.27562269009649754,662.0003951559775,None,0.9701,662.4075147940312,None,,,,,,,DEC021,001,2022_Nov_12_1037,2-25_cond_decay_EYE-try,2021.2.3,120.20599136915529,
right,1.0,0.75,0,0,0,0,0,2,0,2,0,1,4,14,1,,,,,,,,,,,,,,,1s,663.4654717720114,664.4672024578322,664.4588124540169,None,665.4585689699743,666.1677640648559,665.4585689699743,666.1677640648559,666.1591842528433,None,666.1591842528433,None,space,0.33336785598658025,666.1591842528433,None,0.7048,666.6240966790356,None,,,,,,,DEC021,001,2022_Nov_12_1037,2-25_cond_decay_EYE-try,2021.2.3,120.20599136915529,
right,1.0,0.75,0,0,0,0,0,2,0,2,0,1,5,15,0,,,,,,,,,,,,,,,1s,667.6825121389702,668.684317749925,668.6758174088318,None,669.6755799069069,669.8674946799874,669.6755799069069,669.8674946799874,669.8674946799874,None,669.8674946799874,None,space,0.3608435590285808,669.8674946799874,None,0.1895,670.3578970688395,None,,,,,,,DEC021,001,2022_Nov_12_1037,2-25_cond_decay_EYE-try,2021.2.3,120.20599136915529,
right,1.0,0.75,0,0,0,0,0,2,0,2,0,1,6,16,9,,,,,,,,,,,,,,,1s,671.4088142199907,672.4087101658806,672.4008718999103,None,673.4010071030352,673.8259190600365,673.4010071030352,673.8259190600365,673.8259190600365,None,673.8259190600365,None,space,0.5003688680008054,673.8259190600365,None,0.4251,674.4575239128899,None,,,,,,,DEC021,001,2022_Nov_12_1037,2-25_cond_decay_EYE-try,2021.2.3,120.20599136915529,
left,0.75,1.0,0,0,0,0,0,2,0,2,0,1,7,17,5,,,,,,,,,,,,,,,1s,675.5161655158736,676.5170771670528,676.5087699338328,None,677.5090133310296,678.4591633400414,677.5090133310296,678.4591633400414,678.4591633400414,None,678.4591633400414,None,space,0.3523282138630748,678.4591633400414,None,0.9463,678.9416148019955,None,,,,,,,DEC021,001,2022_Nov_12_1037,2-25_cond_decay_EYE-try,2021.2.3,120.20599136915529,
left,0.75,1.0,0,0,0,0,0,2,0,2,0,1,8,18,6,,,,,,,,,,,,,,,1s,679.9928037258796,680.9923537219875,680.9840817409568,None,681.984270469984,682.9757343118545,681.984270469984,682.9757343118545,682.9757343118545,None,682.9757343118545,None,space,0.47535903309471905,682.9757343118545,None,0.9876,683.5762489370536,None,,,,,,,DEC021,001,2022_Nov_12_1037,2-25_cond_decay_EYE-try,2021.2.3,120.20599136915529,
left,0.75,1.0,0,0,0,0,0,2,0,2,0,1,9,19,7,,,,,,,,,,,,,,,1s,684.6411829290446,685.6423496569041,685.6337805178482,None,686.6339108978864,687.0677836670075,686.6339108978864,687.0677836670075,687.0677836670075,None,687.0677836670075,None,space,0.4522320369724184,687.0677836670075,None,0.4321,687.6497163849417,None,,,,,,,DEC021,001,2022_Nov_12_1037,2-25_cond_decay_EYE-try,2021.2.3,120.20599136915529,
,,,,0,0,0,0,2,0,2,0,,,,,,,,,,,,,,,,,,,,,,,,,,,,,,,,,,,,,,,,,,,,,DEC021,001,2022_Nov_12_1037,2-25_cond_decay_EYE-try,2021.2.3,120.20599136915529,
left,0.75,1.0,0,0,0,0,0,3,0,3,0,0,0,0,1,,,,,,,,,688.540689541027,None,688.540689541027,None,688.540689541027,None,10s,690.7994682418648,691.8011422790587,691.7928920399863,None,692.7920005810447,694.0255588849541,692.7920005810447,694.0255588849541,694.0255588849541,None,694.0255588849541,None,space,0.4841864409390837,694.0255588849541,None,1.2321,694.6415672239382,None,,,,,,,DEC021,001,2022_Nov_12_1037,2-25_cond_decay_EYE-try,2021.2.3,120.20599136915529,
right,1.0,0.75,0,0,0,0,0,3,0,3,0,0,1,1,8,,,,,,,,,,,,,,,10s,695.6929390928708,696.6930768948514,696.6845512059517,None,697.6840324599762,707.6177620009985,697.6840324599762,707.6177620009985,707.6177620009985,None,707.6177620009985,None,space,0.39469682006165385,707.6177620009985,None,9.9339,708.1416812599637,None,,,,,,,DEC021,001,2022_Nov_12_1037,2-25_cond_decay_EYE-try,2021.2.3,120.20599136915529,
left,0.75,1.0,0,0,0,0,0,3,0,3,0,0,2,2,6,,,,,,,,,,,,,,,10s,709.1992988928687,710.2009189380333,710.1847895670217,None,711.1847687989939,715.4258785969578,711.1847687989939,715.4258785969578,715.4258785969578,None,715.4258785969578,None,space,0.3444050429388881,715.4258785969578,None,4.2417,715.9001017729752,None,,,,,,,DEC021,001,2022_Nov_12_1037,2-25_cond_decay_EYE-try,2021.2.3,120.20599136915529,
right,1.0,0.75,0,0,0,0,0,3,0,3,0,0,3,3,2,,,,,,,,,,,,,,,10s,716.9578000430483,717.9596389918588,717.9424726089928,None,718.9424975740258,719.5427035000175,718.9424975740258,719.5427035000175,719.5427035000175,None,719.5427035000175,None,None,,719.5427035000175,None,0.5956,720.6663954469841,None,,,,,,,DEC021,001,2022_Nov_12_1037,2-25_cond_decay_EYE-try,2021.2.3,120.20599136915529,
left,0.75,1.0,0,0,0,0,0,3,0,3,0,0,4,4,3,,,,,,,,,,,,,,,10s,721.7249410869554,722.7267986449879,722.7179861399345,None,723.7176212489139,724.8516502699349,723.7176212489139,724.8516502699349,724.8516502699349,None,724.8516502699349,None,space,0.42509625595994294,724.8516502699349,None,1.1299,725.4084933970589,None,,,,,,,DEC021,001,2022_Nov_12_1037,2-25_cond_decay_EYE-try,2021.2.3,120.20599136915529,
right,1.0,0.75,0,0,0,0,0,3,0,3,0,0,5,5,4,,,,,,,,,,,,,,,10s,726.4667171149049,727.4678294979967,727.4507761078421,None,728.45075580501,735.2343966900371,728.45075580501,735.2343966900371,735.2343966900371,None,735.2343966900371,None,space,0.38619634020142257,735.2343966900371,None,6.7839,735.7496811619494,None,,,,,,,DEC021,001,2022_Nov_12_1037,2-25_cond_decay_EYE-try,2021.2.3,120.20599136915529,
right,0.75,1.0,1,0,0,0,0,3,0,3,0,0,6,6,0,,,,,,,,,,,,,,,10s,736.808330002008,737.8097856459208,737.8009129590355,None,738.8012795399409,747.7016836500261,738.8012795399409,747.7016836500261,747.6930293058977,None,747.6930293058977,None,space,0.3919137120246887,747.6930293058977,None,8.8956,748.2172142858617,None,,,,,,,DEC021,001,2022_Nov_12_1037,2-25_cond_decay_EYE-try,2021.2.3,120.20599136915529,
right,1.0,0.75,0,0,0,0,0,3,0,3,0,0,7,7,5,,,,,,,,,,,,,,,10s,749.2752619599923,750.2766160429455,750.2681583878584,None,751.2685875459574,751.8431640940253,751.2685875459574,751.8431640940253,751.8344655309338,None,751.8344655309338,None,space,0.494565520202741,751.8344655309338,None,0.5716,752.4584685498849,None,,,,,,,DEC021,001,2022_Nov_12_1037,2-25_cond_decay_EYE-try,2021.2.3,120.20599136915529,
left,1.0,0.75,1,0,0,0,0,3,0,3,0,0,8,8,7,,,,,,,,,,,,,,,10s,753.5168935069814,754.5184649280272,754.5102610560134,None,755.5102678218391,765.4680858838838,755.5102678218391,765.4680858838838,765.4680858838838,None,765.4680858838838,None,space,0.36773701896891,765.4680858838838,None,9.9585,765.9669458379503,None,,,,,,,DEC021,001,2022_Nov_12_1037,2-25_cond_decay_EYE-try,2021.2.3,120.20599136915529,
left,0.75,1.0,0,0,0,0,0,3,0,3,0,0,9,9,9,,,,,,,,,,,,,,,10s,767.0188479779754,768.0179353998974,768.0099326509517,None,769.0099346798379,769.6021371940151,769.0099346798379,769.6021371940151,769.6021371940151,None,769.6021371940151,None,space,0.3852514959871769,769.6021371940151,None,0.5894,770.1166577688418,None,,,,,,,DEC021,001,2022_Nov_12_1037,2-25_cond_decay_EYE-try,2021.2.3,120.20599136915529,
left,1.0,0.75,1,0,0,0,0,3,0,3,0,1,0,10,7,,,,,,,,,,,,,,,10s,771.175206753891,772.1762372199446,772.1683006689418,None,773.1680549180601,773.7771280598827,773.1680549180601,773.7771280598827,773.7683015658986,None,773.7683015658986,None,space,0.3938664870802313,773.7683015658986,None,0.604,774.2925269568805,None,,,,,,,DEC021,001,2022_Nov_12_1037,2-25_cond_decay_EYE-try,2021.2.3,120.20599136915529,
left,0.75,1.0,0,0,0,0,0,3,0,3,0,1,1,11,9,,,,,,,,,,,,,,,10s,775.3507468670141,776.3521084419917,776.3437404308934,None,777.3438657559454,779.1597440410405,777.3438657559454,779.1597440410405,779.1520552809816,None,779.1520552809816,None,space,0.3685419950634241,779.1520552809816,None,1.8149,779.6506977549288,None,,,,,,,DEC021,001,2022_Nov_12_1037,2-25_cond_decay_EYE-try,2021.2.3,120.20599136915529,
left,0.75,1.0,0,0,0,0,0,3,0,3,0,1,2,12,6,,,,,,,,,,,,,,,10s,780.7089546320494,781.7102214710321,781.7019420869183,None,782.7019800979178,790.5351011909079,782.7019800979178,790.5351011909079,790.5351011909079,None,790.5351011909079,None,space,0.4112676060758531,790.5351011909079,None,7.8344,791.0756385079585,None,,,,,,,DEC021,001,2022_Nov_12_1037,2-25_cond_decay_EYE-try,2021.2.3,120.20599136915529,
right,1.0,0.75,0,0,0,0,0,3,0,3,0,1,3,13,2,,,,,,,,,,,,,,,10s,792.1336056210566,793.1349354139529,793.1269502679352,None,794.1268403439317,798.6604518820532,794.1268403439317,798.6604518820532,798.6604518820532,None,798.6604518820532,None,space,0.3749396880157292,798.6604518820532,None,4.5293,799.1603309048805,None,,,,,,,DEC021,001,2022_Nov_12_1037,2-25_cond_decay_EYE-try,2021.2.3,120.20599136915529,
right,0.75,1.0,1,0,0,0,0,3,0,3,0,1,4,14,0,,,,,,,,,,,,,,,10s,800.2170587950386,801.2188560639042,801.2020152008627,None,802.2017383968923,805.2020539259538,802.2017383968923,805.2020539259538,805.2098466509487,None,805.2098466509487,None,space,0.4255852489732206,805.2098466509487,None,3.0009,805.760364956921,None,,,,,,,DEC021,001,2022_Nov_12_1037,2-25_cond_decay_EYE-try,2021.2.3,120.20599136915529,
right,1.0,0.75,0,0,0,0,0,3,0,3,0,1,5,15,8,,,,,,,,,,,,,,,10s,806.8260405559558,807.8267313358374,807.8187894988805,None,808.8187249749899,809.1941105579026,808.8187249749899,809.1941105579026,809.1855037328787,810.1856233449653,809.1855037328787,810.1856233449653,None,,809.1855037328787,810.1856233449653,0.3723,810.3174338729586,None,,,,,,,DEC021,001,2022_Nov_12_1037,2-25_cond_decay_EYE-try,2021.2.3,120.20599136915529,
left,0.75,1.0,0,0,0,0,0,3,0,3,0,1,6,16,3,,,,,,,,,,,,,,,10s,811.3757703639567,812.3768209679984,812.3686082919594,None,813.3686056360602,815.1852911110036,813.3686056360602,815.1852911110036,815.1852911110036,None,815.1852911110036,None,space,0.38601910998113453,815.1852911110036,None,1.8163,815.7010721149854,None,,,,,,,DEC021,001,2022_Nov_12_1037,2-25_cond_decay_EYE-try,2021.2.3,120.20599136915529,
left,0.75,1.0,0,0,0,0,0,3,0,3,0,1,7,17,1,,,,,,,,,,,,,,,10s,816.7504427258391,817.7526790369302,817.7438134718686,None,818.7434540009126,822.6438285589684,818.7434540009126,822.6438285589684,822.6438285589684,None,822.6438285589684,None,space,0.46086634998209774,822.6438285589684,None,3.8966,823.2343996260315,None,,,,,,,DEC021,001,2022_Nov_12_1037,2-25_cond_decay_EYE-try,2021.2.3,120.20599136915529,
right,1.0,0.75,0,0,0,0,0,3,0,3,0,1,8,18,4,,,,,,,,,,,,,,,10s,824.2852340070531,825.2855280379299,825.2771007579286,None,826.2773650179151,834.6189867400099,826.2773650179151,834.6189867400099,834.6189867400099,None,834.6189867400099,None,space,0.37778492108918726,834.6189867400099,None,8.3364,835.1256492380053,None,,,,,,,DEC021,001,2022_Nov_12_1037,2-25_cond_decay_EYE-try,2021.2.3,120.20599136915529,
right,1.0,0.75,0,0,0,0,0,3,0,3,0,1,9,19,5,,,,,,,,,,,,,,,10s,836.1777370988857,837.1774784398731,837.1691056529526,None,838.1694469149224,846.1770990130026,838.1694469149224,846.1770990130026,846.1770990130026,None,846.1770990130026,None,space,0.3864861309994012,846.1770990130026,None,8.0059,846.6929246450309,None,,,,,,,DEC021,001,2022_Nov_12_1037,2-25_cond_decay_EYE-try,2021.2.3,120.20599136915529,
,,,,0,0,0,0,3,0,3,0,,,,,,,,,,,,,,,,,,,,,,,,,,,,,,,,,,,,,,,,,,,,,DEC021,001,2022_Nov_12_1037,2-25_cond_decay_EYE-try,2021.2.3,120.20599136915529,
,,,,0,0,0,0,,,,,,,,,,,,,,,,,,,,,,,,,,,,,,,,,,,,,,,,,,,847.5846104428638,None,847.5846104428638,None,847.5846104428638,None,DEC021,001,2022_Nov_12_1037,2-25_cond_decay_EYE-try,2021.2.3,120.20599136915529,
left,0.75,1.0,0,1,0,1,0,0,0,0,0,0,0,0,3,,,,,,,,,852.5845221418422,None,852.5845221418422,None,852.5845221418422,None,3s,855.059760233853,856.0613868630026,856.0531596718356,None,857.0523127398919,857.4778052829206,857.0523127398919,857.4778052829206,857.4690980468877,858.4692968609743,857.4690980468877,858.4692968609743,None,,857.4690980468877,858.4692968609743,0.4194,858.6015431750566,None,,,,,,,DEC021,001,2022_Nov_12_1037,2-25_cond_decay_EYE-try,2021.2.3,120.20599136915529,
right,1.0,0.75,0,1,0,1,0,0,0,0,0,0,1,1,4,,,,,,,,,,,,,,,3s,859.6600840049796,860.6608775369823,860.6444363498595,None,861.6442072319333,863.9610328818671,861.6442072319333,863.9610328818671,863.9610328818671,None,863.9610328818671,None,space,0.4023728119209409,863.9610328818671,None,2.3109,864.4941188700031,None,,,,,,,DEC021,001,2022_Nov_12_1037,2-25_cond_decay_EYE-try,2021.2.3,120.20599136915529,
left,0.75,1.0,0,1,0,1,0,0,0,0,0,0,2,2,1,,,,,,,,,,,,,,,3s,865.5514012880158,866.5530886088964,866.536075895885,None,867.536215211032,870.4525280320086,867.536215211032,870.4525280320086,870.4525280320086,None,870.4525280320086,None,space,0.41782407090067863,870.4525280320086,None,2.9139,871.0012492458336,None,,,,,,,DEC021,001,2022_Nov_12_1037,2-25_cond_decay_EYE-try,2021.2.3,120.20599136915529,
right,1.0,0.75,0,1,0,1,0,0,0,0,0,0,3,3,5,,,,,,,,,,,,,,,3s,872.0599724508356,873.0611093880143,873.0526735640597,None,874.0524325380102,875.9190138049889,874.0524325380102,875.9190138049889,875.9190138049889,None,875.9190138049889,None,space,0.35350338905118406,875.9190138049889,None,1.866,876.4016923960298,None,,,,,,,DEC021,001,2022_Nov_12_1037,2-25_cond_decay_EYE-try,2021.2.3,120.20599136915529,
left,1.0,0.75,1,1,0,1,0,0,0,0,0,0,4,4,6,,,,,,,,,,,,,,,3s,877.4518932879437,878.4529907300603,878.4446017569862,None,879.4448744440451,881.9531786029693,879.4448744440451,881.9531786029693,881.9445835328661,None,881.9445835328661,None,space,0.4510487581137568,881.9445835328661,None,2.5008,882.5262284448836,None,,,,,,,DEC021,001,2022_Nov_12_1037,2-25_cond_decay_EYE-try,2021.2.3,120.20599136915529,
left,0.75,1.0,0,1,0,1,0,0,0,0,0,0,5,5,8,,,,,,,,,,,,,,,3s,883.5847104890272,884.5860301740468,884.5774849068839,None,885.5776286588516,887.0358812478371,885.5776286588516,887.0358812478371,887.0358812478371,None,887.0358812478371,None,space,0.34261859115213156,887.0358812478371,None,1.4575,887.5102960260119,None,,,,,,,DEC021,001,2022_Nov_12_1037,2-25_cond_decay_EYE-try,2021.2.3,120.20599136915529,
right,1.0,0.75,0,1,0,1,0,0,0,0,0,0,6,6,2,,,,,,,,,,,,,,,3s,888.5680678219069,889.5698750768788,889.5614275268745,None,890.561712034978,891.5034333639778,890.561712034978,891.5034333639778,891.4948744259309,None,891.4948744259309,None,space,0.3858755058608949,891.4948744259309,None,0.9362,892.0103149008937,None,,,,,,,DEC021,001,2022_Nov_12_1037,2-25_cond_decay_EYE-try,2021.2.3,120.20599136915529,
right,1.0,0.75,0,1,0,1,0,0,0,0,0,0,7,7,9,,,,,,,,,,,,,,,3s,893.0684885829687,894.0699005119968,894.0614555198699,None,895.0616421438754,896.8446132089011,895.0616421438754,896.8446132089011,896.8446132089011,None,896.8446132089011,None,space,0.39204902993515134,896.8446132089011,None,1.7832,897.3686791739892,None,,,,,,,DEC021,001,2022_Nov_12_1037,2-25_cond_decay_EYE-try,2021.2.3,120.20599136915529,
left,0.75,1.0,0,1,0,1,0,0,0,0,0,0,8,8,0,,,,,,,,,,,,,,,3s,898.4267436529044,899.4279532940127,899.4196491788607,None,900.4195562510286,900.8285109428689,900.4195562510286,900.8285109428689,900.8285109428689,None,900.8285109428689,None,space,0.40830841194838285,900.8285109428689,None,0.4067,901.3685906489845,None,,,,,,,DEC021,001,2022_Nov_12_1037,2-25_cond_decay_EYE-try,2021.2.3,120.20599136915529,
right,0.75,1.0,1,1,0,1,0,0,0,0,0,0,9,9,7,,,,,,,,,,,,,,,3s,902.4268602100201,903.4285888138693,903.4194829680491,None,904.4196117720567,906.169726169901,904.4196117720567,906.169726169901,906.1619152599014,None,906.1619152599014,None,space,0.5524132589343935,906.1619152599014,None,1.7439,906.8436460029334,None,,,,,,,DEC021,001,2022_Nov_12_1037,2-25_cond_decay_EYE-try,2021.2.3,120.20599136915529,
left,1.0,0.75,1,1,0,1,0,0,0,0,0,1,0,10,6,,,,,,,,,,,,,,,3s,907.9020744638983,908.9027816080488,908.895436483901,None,909.8945714810397,912.0278709048871,909.8945714810397,912.0278709048871,912.0194740209263,None,912.0194740209263,None,space,0.5199089990928769,912.0194740209263,None,2.1262,912.6681640050374,None,,,,,,,DEC021,001,2022_Nov_12_1037,2-25_cond_decay_EYE-try,2021.2.3,120.20599136915529,
left,0.75,1.0,0,1,0,1,0,0,0,0,0,1,1,11,0,,,,,,,,,,,,,,,3s,913.727611084003,914.7288293100428,914.7204342519399,None,915.719613941852,917.8695631299634,915.719613941852,917.8695631299634,917.8620489770547,None,917.8620489770547,None,space,0.39228369295597076,917.8620489770547,None,2.1452,918.385634848848,None,,,,,,,DEC021,001,2022_Nov_12_1037,2-25_cond_decay_EYE-try,2021.2.3,120.20599136915529,
right,1.0,0.75,0,1,0,1,0,0,0,0,0,1,2,12,2,,,,,,,,,,,,,,,3s,919.4351784449536,920.4365355239715,920.4281991538592,None,921.4284922049847,922.7865066840313,921.4284922049847,922.7865066840313,922.7778733130544,None,922.7778733130544,None,space,0.659336611861363,922.7778733130544,None,1.3512,923.5684399530292,None,,,,,,,DEC021,001,2022_Nov_12_1037,2-25_cond_decay_EYE-try,2021.2.3,120.20599136915529,
left,0.75,1.0,0,1,0,1,0,0,0,0,0,1,3,13,1,,,,,,,,,,,,,,,3s,924.6273230358493,925.6285363908391,925.6119595109485,None,926.6120799949858,926.9784889440052,926.6120799949858,926.9784889440052,926.9784889440052,None,926.9784889440052,None,space,0.3689023479819298,926.9784889440052,None,0.3663,927.4772230610251,None,,,,,,,DEC021,001,2022_Nov_12_1037,2-25_cond_decay_EYE-try,2021.2.3,120.20599136915529,
right,1.0,0.75,0,1,0,1,0,0,0,0,0,1,4,14,5,,,,,,,,,,,,,,,3s,928.5353845870122,929.5365263158455,929.5285439258441,None,930.5281944950111,930.9035929979291,930.5281944950111,930.9035929979291,930.9035929979291,None,930.9035929979291,None,space,0.4107564091682434,930.9035929979291,None,0.3714,931.4437565738335,None,,,,,,,DEC021,001,2022_Nov_12_1037,2-25_cond_decay_EYE-try,2021.2.3,120.20599136915529,
right,1.0,0.75,0,1,0,1,0,0,0,0,0,1,5,15,4,,,,,,,,,,,,,,,3s,932.4937661320437,933.4946355209686,933.4787054869812,None,934.4779389959294,935.3113355289679,934.4779389959294,935.3113355289679,935.3113355289679,None,935.3113355289679,None,space,0.38572695991024375,935.3113355289679,None,0.8289,935.8273453218862,None,,,,,,,DEC021,001,2022_Nov_12_1037,2-25_cond_decay_EYE-try,2021.2.3,120.20599136915529,
left,0.75,1.0,0,1,0,1,0,0,0,0,0,1,6,16,8,,,,,,,,,,,,,,,3s,936.8785971479956,937.8783162138425,937.8700926050078,None,938.8700989049394,941.7204473540187,938.8700989049394,941.7204473540187,941.7204473540187,None,941.7204473540187,None,space,0.4272418350446969,941.7204473540187,None,2.8495,942.2774865829851,None,,,,,,,DEC021,001,2022_Nov_12_1037,2-25_cond_decay_EYE-try,2021.2.3,120.20599136915529,
right,0.75,1.0,1,1,0,1,0,0,0,0,0,1,7,17,7,,,,,,,,,,,,,,,3s,943.3356882450171,944.3372588958591,944.3205164119136,None,945.3199954880401,947.520192180993,945.3199954880401,947.520192180993,947.520192180993,None,947.520192180993,None,space,0.36073793307878077,947.520192180993,None,2.1971,948.0110778829549,None,,,,,,,DEC021,001,2022_Nov_12_1037,2-25_cond_decay_EYE-try,2021.2.3,120.20599136915529,
left,0.75,1.0,0,1,0,1,0,0,0,0,0,1,8,18,3,,,,,,,,,,,,,,,3s,949.069265387021,950.0701783818658,950.0617932009045,None,951.0623600068502,951.4953151799273,951.0623600068502,951.4953151799273,951.4869237879757,None,951.4869237879757,None,space,0.46956297010183334,951.4869237879757,None,0.4283,952.0854084119201,None,,,,,,,DEC021,001,2022_Nov_12_1037,2-25_cond_decay_EYE-try,2021.2.3,120.20599136915529,
right,1.0,0.75,0,1,0,1,0,0,0,0,0,1,9,19,9,,,,,,,,,,,,,,,3s,953.1437027079519,954.1450596819632,954.1370144910179,None,955.1370468318928,956.1704181418754,955.1370468318928,956.1704181418754,956.1615750829224,None,956.1615750829224,None,space,0.32754233106970787,956.1615750829224,None,1.0262,956.6190715299454,None,,,,,,,DEC021,001,2022_Nov_12_1037,2-25_cond_decay_EYE-try,2021.2.3,120.20599136915529,
,,,,1,0,1,0,0,0,0,0,,,,,,,,,,,,,,,,,,,,,,,,,,,,,,,,,,,,,,,,,,,,,DEC021,001,2022_Nov_12_1037,2-25_cond_decay_EYE-try,2021.2.3,120.20599136915529,
left,0.75,1.0,0,1,0,1,0,1,0,1,0,0,0,0,0,,,,,,,,,957.510740941856,None,957.510740941856,None,957.510740941856,None,1s,958.9443926480599,959.945468254853,959.9370646688621,None,960.937303161947,961.7032875090372,960.937303161947,961.7032875090372,961.6955355568789,None,961.6955355568789,None,space,0.39354726881720126,961.6955355568789,None,0.7628,962.2195041049272,None,,,,,,,DEC021,001,2022_Nov_12_1037,2-25_cond_decay_EYE-try,2021.2.3,120.20599136915529,
left,0.75,1.0,0,1,0,1,0,1,0,1,0,0,1,1,4,,,,,,,,,,,,,,,1s,963.2779735580552,964.2787921610288,964.2701737859752,None,965.2707369648851,965.6368268858641,965.2707369648851,965.6368268858641,965.628374411026,None,965.628374411026,None,space,0.5199736729264259,965.628374411026,None,0.3593,966.2778534330428,None,,,,,,,DEC021,001,2022_Nov_12_1037,2-25_cond_decay_EYE-try,2021.2.3,120.20599136915529,
right,1.0,0.75,0,1,0,1,0,1,0,1,0,0,2,2,1,,,,,,,,,,,,,,,1s,967.3357479488477,968.3370143368375,968.3287280239165,None,969.3287506778724,970.1535848879721,969.3287506778724,970.1535848879721,970.1535848879721,None,970.1535848879721,None,space,0.3527992640156299,970.1535848879721,None,0.8247,970.6355223159771,None,,,,,,,DEC021,001,2022_Nov_12_1037,2-25_cond_decay_EYE-try,2021.2.3,120.20599136915529,
left,0.75,1.0,0,1,0,1,0,1,0,1,0,0,3,3,2,,,,,,,,,,,,,,,1s,971.6944251819514,972.6959777430166,972.6869097158778,None,973.6876862798817,973.8870882159099,973.6876862798817,973.8870882159099,973.8794291380327,None,973.8794291380327,None,space,0.36902354611083865,973.8794291380327,None,0.1918,974.3775216520298,None,,,,,,,DEC021,001,2022_Nov_12_1037,2-25_cond_decay_EYE-try,2021.2.3,120.20599136915529,
left,0.75,1.0,0,1,0,1,0,1,0,1,0,0,4,4,6,,,,,,,,,,,,,,,1s,975.4283571429551,976.4290220770054,976.4207218019292,None,977.4207628120203,977.6706995768473,977.4207628120203,977.6706995768473,977.6706995768473,None,977.6706995768473,None,space,0.31748009589500725,977.6706995768473,None,0.2487,978.1189222089015,None,,,,,,,DEC021,001,2022_Nov_12_1037,2-25_cond_decay_EYE-try,2021.2.3,120.20599136915529,
left,1.0,0.75,1,1,0,1,0,1,0,1,0,0,5,5,8,,,,,,,,,,,,,,,1s,979.1778285759501,980.1785410258453,980.1705844718963,None,981.1625860328786,981.5544639599975,981.1625860328786,981.5544639599975,981.5544639599975,None,981.5544639599975,None,space,0.3016347079537809,981.5544639599975,None,0.3872,981.9856145668309,None,,,,,,,DEC021,001,2022_Nov_12_1037,2-25_cond_decay_EYE-try,2021.2.3,120.20599136915529,
right,1.0,0.75,0,1,0,1,0,1,0,1,0,0,6,6,9,,,,,,,,,,,,,,,1s,983.0444657669868,984.0457214650232,984.0372433438897,None,985.037776971003,985.3373721260577,985.037776971003,985.3373721260577,985.3373721260577,None,985.3373721260577,None,space,0.3608828210271895,985.3373721260577,None,0.2953,985.8278772688936,None,,,,,,,DEC021,001,2022_Nov_12_1037,2-25_cond_decay_EYE-try,2021.2.3,120.20599136915529,
left,0.75,1.0,0,1,0,1,0,1,0,1,0,0,7,7,7,,,,,,,,,,,,,,,1s,986.8856893929187,987.8877149289474,987.8704052059911,None,988.8709129169583,989.5625431160443,988.8709129169583,989.5625431160443,989.5625431160443,None,989.5625431160443,None,space,0.45063577010296285,989.5625431160443,None,0.6845,990.1448768598493,None,,,,,,,DEC021,001,2022_Nov_12_1037,2-25_cond_decay_EYE-try,2021.2.3,120.20599136915529,
right,1.0,0.75,0,1,0,1,0,1,0,1,0,0,8,8,5,,,,,,,,,,,,,,,1s,991.2023215668742,992.204460040899,992.1959422188811,None,993.1954255518503,993.820969983004,993.1954255518503,993.820969983004,993.820969983004,None,993.820969983004,None,space,0.29444877803325653,993.820969983004,None,0.625,994.2445481000468,None,,,,,,,DEC021,001,2022_Nov_12_1037,2-25_cond_decay_EYE-try,2021.2.3,120.20599136915529,
right,0.75,1.0,1,1,0,1,0,1,0,1,0,0,9,9,3,,,,,,,,,,,,,,,1s,995.3029323429801,996.3036071138922,996.2953499150462,None,997.2957770689391,997.8037265080493,997.2957770689391,997.8037265080493,997.8037265080493,None,997.8037265080493,None,space,0.311560092959553,997.8037265080493,None,0.5059,998.2450775709003,None,,,,,,,DEC021,001,2022_Nov_12_1037,2-25_cond_decay_EYE-try,2021.2.3,120.20599136915529,
left,0.75,1.0,0,1,0,1,0,1,0,1,0,1,0,10,6,,,,,,,,,,,,,,,1s,999.3027856529225,1000.3044495340437,1000.2963429798838,None,1001.2959104960319,1001.946273030946,1001.2959104960319,1001.946273030946,1001.946273030946,None,1001.946273030946,None,space,0.3692448600195348,1001.946273030946,None,0.6464,1002.4442189028487,None,,,,,,,DEC021,001,2022_Nov_12_1037,2-25_cond_decay_EYE-try,2021.2.3,120.20599136915529,
right,1.0,0.75,0,1,0,1,0,1,0,1,0,1,1,11,0,,,,,,,,,,,,,,,1s,1003.4960820269771,1004.4955558290239,1004.4874785598367,None,1005.4873872708995,1006.0212821699679,1005.4873872708995,1006.0212821699679,1006.0212821699679,None,1006.0212821699679,None,space,0.48494687280617654,1006.0212821699679,None,0.5268,1006.6363154819701,None,,,,,,,DEC021,001,2022_Nov_12_1037,2-25_cond_decay_EYE-try,2021.2.3,120.20599136915529,
right,1.0,0.75,0,1,0,1,0,1,0,1,0,1,2,12,5,,,,,,,,,,,,,,,1s,1007.6877107359469,1008.6875366808381,1008.6790910540149,None,1009.6793846779037,1010.3122078918386,1009.6793846779037,1010.3122078918386,1010.3122078918386,None,1010.3122078918386,None,space,0.41935886396095157,1010.3122078918386,None,0.6274,1010.8616479530465,None,,,,,,,DEC021,001,2022_Nov_12_1037,2-25_cond_decay_EYE-try,2021.2.3,120.20599136915529,
left,1.0,0.75,1,1,0,1,0,1,0,1,0,1,3,13,8,,,,,,,,,,,,,,,1s,1011.9198167540599,1012.9214264538605,1012.9129795709159,None,1013.9121326529421,1014.7295404828619,1013.9121326529421,1014.7295404828619,1014.7295404828619,None,1014.7295404828619,None,space,0.516539764823392,1014.7295404828619,None,0.8141,1015.3712608600035,None,,,,,,,DEC021,001,2022_Nov_12_1037,2-25_cond_decay_EYE-try,2021.2.3,120.20599136915529,
right,0.75,1.0,1,1,0,1,0,1,0,1,0,1,4,14,3,,,,,,,,,,,,,,,1s,1016.4362483778968,1017.4373731298838,1017.4291407789569,None,1018.4291367840488,1018.8958016559482,1018.4291367840488,1018.8958016559482,1018.8958016559482,None,1018.8958016559482,None,space,0.4840514699462801,1018.8958016559482,None,0.4654,1019.511749814963,None,,,,,,,DEC021,001,2022_Nov_12_1037,2-25_cond_decay_EYE-try,2021.2.3,120.20599136915529,
right,1.0,0.75,0,1,0,1,0,1,0,1,0,1,5,15,1,,,,,,,,,,,,,,,1s,1020.569964509923,1021.5706356388982,1021.5630270708352,None,1022.562263560947,1023.2377944500186,1022.562263560947,1023.2377944500186,1023.2377944500186,None,1023.2377944500186,None,space,0.33360007381998,1023.2377944500186,None,0.6753,1023.6966743888333,None,,,,,,,DEC021,001,2022_Nov_12_1037,2-25_cond_decay_EYE-try,2021.2.3,120.20599136915529,
left,0.75,1.0,0,1,0,1,0,1,0,1,0,1,6,16,2,,,,,,,,,,,,,,,1s,1024.7617066500243,1025.7626891119871,1025.7458721050061,None,1026.7460595639423,1027.104085674975,1026.7460595639423,1027.104085674975,1027.104085674975,None,1027.104085674975,None,space,0.8273979870136827,1027.104085674975,None,0.3546,1028.0615770108998,None,,,,,,,DEC021,001,2022_Nov_12_1037,2-25_cond_decay_EYE-try,2021.2.3,120.20599136915529,
right,1.0,0.75,0,1,0,1,0,1,0,1,0,1,7,17,9,,,,,,,,,,,,,,,1s,1029.120104841888,1030.1216496760026,1030.1134493418504,None,1031.113158504013,1031.2791427278426,1031.113158504013,1031.2791427278426,1031.2712988068815,None,1031.2712988068815,None,space,0.4611542369239032,1031.2712988068815,None,0.1613,1031.8613239959814,None,,,,,,,DEC021,001,2022_Nov_12_1037,2-25_cond_decay_EYE-try,2021.2.3,120.20599136915529,
left,0.75,1.0,0,1,0,1,0,1,0,1,0,1,8,18,7,,,,,,,,,,,,,,,1s,1032.9195169508457,1033.9212704529054,1033.9131546630524,None,1034.9128501878586,1035.3878882699646,1034.9128501878586,1035.3878882699646,1035.3878882699646,None,1035.3878882699646,None,space,0.36729355808347464,1035.3878882699646,None,0.4739,1035.8867999089416,None,,,,,,,DEC021,001,2022_Nov_12_1037,2-25_cond_decay_EYE-try,2021.2.3,120.20599136915529,
left,0.75,1.0,0,1,0,1,0,1,0,1,0,1,9,19,4,,,,,,,,,,,,,,,1s,1036.9367183330469,1037.9382760128938,1037.9209570509847,None,1038.9213546318933,1039.8540687819477,1038.9213546318933,1039.8540687819477,1039.8540687819477,None,1039.8540687819477,None,space,0.3760250802151859,1039.8540687819477,None,0.9265,1040.354988762876,None,,,,,,,DEC021,001,2022_Nov_12_1037,2-25_cond_decay_EYE-try,2021.2.3,120.20599136915529,
,,,,1,0,1,0,1,0,1,0,,,,,,,,,,,,,,,,,,,,,,,,,,,,,,,,,,,,,,,,,,,,,DEC021,001,2022_Nov_12_1037,2-25_cond_decay_EYE-try,2021.2.3,120.20599136915529,
left,0.75,1.0,0,1,0,1,0,2,0,2,0,0,0,0,0,,,,,,,,,1041.2535001318902,None,1041.2535001318902,None,1041.2535001318902,None,5s,1042.886552194832,1043.8881208228413,1043.879894725047,None,1044.8799643018283,1048.5966232428327,1044.8799643018283,1048.5966232428327,1048.5878306999803,None,1048.5878306999803,None,space,0.502497442997992,1048.5878306999803,None,3.7125,1049.2202440300025,None,,,,,,,DEC021,001,2022_Nov_12_1037,2-25_cond_decay_EYE-try,2021.2.3,120.20599136915529,
right,0.75,1.0,1,1,0,1,0,2,0,2,0,0,1,1,3,,,,,,,,,,,,,,,5s,1050.2714344609994,1051.27120478102,1051.2631105268374,None,1052.2626988310367,1052.8877931670286,1052.2626988310367,1052.8877931670286,1052.8877931670286,None,1052.8877931670286,None,space,0.4606145399156958,1052.8877931670286,None,0.6202,1053.4787338250317,None,,,,,,,DEC021,001,2022_Nov_12_1037,2-25_cond_decay_EYE-try,2021.2.3,120.20599136915529,
left,0.75,1.0,0,1,0,1,0,2,0,2,0,0,2,2,5,,,,,,,,,,,,,,,5s,1054.5369253030512,1055.5380261058453,1055.52964264201,None,1056.5296294239815,1058.38776266505,1056.5296294239815,1058.38776266505,1058.3802060279995,1059.3802228339482,1058.3802060279995,1059.3802228339482,None,,1058.3802060279995,1059.3802228339482,1.8554,1059.5121390218846,None,,,,,,,DEC021,001,2022_Nov_12_1037,2-25_cond_decay_EYE-try,2021.2.3,120.20599136915529,
right,1.0,0.75,0,1,0,1,0,2,0,2,0,0,3,3,6,,,,,,,,,,,,,,,5s,1060.570530084893,1061.5716609100346,1061.5633686489891,None,1062.563001818955,1065.5376092588995,1062.563001818955,1065.5376092588995,1065.529959455831,None,1065.529959455831,None,space,0.3272014169488102,1065.529959455831,None,2.9733,1065.9871698908973,None,,,,,,,DEC021,001,2022_Nov_12_1037,2-25_cond_decay_EYE-try,2021.2.3,120.20599136915529,
left,0.75,1.0,0,1,0,1,0,2,0,2,0,0,4,4,2,,,,,,,,,,,,,,,5s,1067.0457258708775,1068.046680171974,1068.0303666659165,None,1069.029703947017,1072.7548383888789,1069.029703947017,1072.7548383888789,1072.7548383888789,None,1072.7548383888789,None,space,0.319602909963578,1072.7548383888789,None,3.7199,1073.203642169945,None,,,,,,,DEC021,001,2022_Nov_12_1037,2-25_cond_decay_EYE-try,2021.2.3,120.20599136915529,
left,1.0,0.75,1,1,0,1,0,2,0,2,0,0,5,5,9,,,,,,,,,,,,,,,5s,1074.2616337139625,1075.2637841398828,1075.2547149749007,None,1076.2544978689402,1077.721193738049,1076.2544978689402,1077.721193738049,1077.721193738049,None,1077.721193738049,None,space,0.41947088297456503,1077.721193738049,None,1.4678,1078.270632030908,None,,,,,,,DEC021,001,2022_Nov_12_1037,2-25_cond_decay_EYE-try,2021.2.3,120.20599136915529,
right,1.0,0.75,0,1,0,1,0,2,0,2,0,0,6,6,7,,,,,,,,,,,,,,,5s,1079.3286511560436,1080.3296423328575,1080.3214381160215,None,1081.3212890450377,1084.5129830050282,1081.3212890450377,1084.5129830050282,1084.5129830050282,None,1084.5129830050282,None,space,0.41966125508770347,1084.5129830050282,None,3.1866,1085.0624392828904,None,,,,,,,DEC021,001,2022_Nov_12_1037,2-25_cond_decay_EYE-try,2021.2.3,120.20599136915529,
left,0.75,1.0,0,1,0,1,0,2,0,2,0,0,7,7,4,,,,,,,,,,,,,,,5s,1086.1203625260387,1087.1216264059767,1087.113409306854,None,1088.1135221619625,1089.6972772630397,1088.1135221619625,1089.6972772630397,1089.6972772630397,None,1089.6972772630397,None,space,0.4103803881444037,1089.6972772630397,None,1.5785,1090.2378337359987,None,,,,,,,DEC021,001,2022_Nov_12_1037,2-25_cond_decay_EYE-try,2021.2.3,120.20599136915529,
right,1.0,0.75,0,1,0,1,0,2,0,2,0,0,8,8,8,,,,,,,,,,,,,,,5s,1091.2958683029283,1092.2966640919913,1092.2801353868563,None,1093.280291086994,1094.3805635520257,1093.280291086994,1094.3805635520257,1094.3805635520257,None,1094.3805635520257,None,space,0.39218649291433394,1094.3805635520257,None,1.0933,1094.904004944954,None,,,,,,,DEC021,001,2022_Nov_12_1037,2-25_cond_decay_EYE-try,2021.2.3,120.20599136915529,
left,0.75,1.0,0,1,0,1,0,2,0,2,0,0,9,9,1,,,,,,,,,,,,,,,5s,1095.9620699179359,1096.9634944340214,1096.9552735998295,None,1097.9551761469338,1099.64643061487,1097.9551761469338,1099.64643061487,1099.64643061487,None,1099.64643061487,None,space,0.3617381521034986,1099.64643061487,None,1.6914,1100.1369319639634,None,,,,,,,DEC021,001,2022_Nov_12_1037,2-25_cond_decay_EYE-try,2021.2.3,120.20599136915529,
left,1.0,0.75,1,1,0,1,0,2,0,2,0,1,0,10,9,,,,,,,,,,,,,,,5s,1101.1962507958524,1102.1973464498296,1102.1889590609353,None,1103.1882494988386,1104.7725876918994,1103.1882494988386,1104.7725876918994,1104.7725876918994,None,1104.7725876918994,None,space,0.4165001241490245,1104.7725876918994,None,1.5811,1105.3203583860304,None,,,,,,,DEC021,001,2022_Nov_12_1037,2-25_cond_decay_EYE-try,2021.2.3,120.20599136915529,
right,1.0,0.75,0,1,0,1,0,2,0,2,0,1,1,11,7,,,,,,,,,,,,,,,5s,1106.3792406939901,1107.380443476839,1107.363162101945,None,1108.363483292982,1109.505196335027,1108.363483292982,1109.505196335027,1109.505196335027,None,1109.505196335027,None,space,0.3359066639095545,1109.505196335027,None,1.1379,1109.9708575769328,None,,,,,,,DEC021,001,2022_Nov_12_1037,2-25_cond_decay_EYE-try,2021.2.3,120.20599136915529,
right,1.0,0.75,0,1,0,1,0,2,0,2,0,1,2,12,8,,,,,,,,,,,,,,,5s,1111.0295234639198,1112.0303911620285,1112.02220450202,None,1113.0222064498812,1117.0304263778962,1113.0222064498812,1117.0304263778962,1117.0224963959772,1118.021703114966,1117.0224963959772,1118.021703114966,None,,1117.0224963959772,1118.021703114966,4.0035,1118.1538727039006,None,,,,,,,DEC021,001,2022_Nov_12_1037,2-25_cond_decay_EYE-try,2021.2.3,120.20599136915529,
right,0.75,1.0,1,1,0,1,0,2,0,2,0,1,3,13,3,,,,,,,,,,,,,,,5s,1119.2038137358613,1120.2056545850355,1120.1886676410213,None,1121.1889810138382,1123.388519139029,1121.1889810138382,1123.388519139029,1123.388519139029,None,1123.388519139029,None,space,0.40106998197734356,1123.388519139029,None,2.2005,1123.9209425428417,None,,,,,,,DEC021,001,2022_Nov_12_1037,2-25_cond_decay_EYE-try,2021.2.3,120.20599136915529,
left,0.75,1.0,0,1,0,1,0,2,0,2,0,1,4,14,1,,,,,,,,,,,,,,,5s,1124.9793748529628,1125.980010679923,1125.9718052358367,None,1126.9719590528402,1130.8638678130228,1126.9719590528402,1130.8638678130228,1130.855116751045,None,1130.855116751045,None,space,0.4113633029628545,1130.855116751045,None,3.8871,1131.3960291889962,None,,,,,,,DEC021,001,2022_Nov_12_1037,2-25_cond_decay_EYE-try,2021.2.3,120.20599136915529,
left,0.75,1.0,0,1,0,1,0,2,0,2,0,1,5,15,2,,,,,,,,,,,,,,,5s,1132.4548238278367,1133.455028788885,1133.438898931956,None,1134.438721362967,1137.6304414509796,1134.438721362967,1137.6304414509796,1137.6304414509796,None,1137.6304414509796,None,space,0.3864094919990748,1137.6304414509796,None,3.1845,1138.1465369230136,None,,,,,,,DEC021,001,2022_Nov_12_1037,2-25_cond_decay_EYE-try,2021.2.3,120.20599136915529,
right,1.0,0.75,0,1,0,1,0,2,0,2,0,1,6,16,0,,,,,,,,,,,,,,,5s,1139.204150701873,1140.2060084389523,1140.197544669034,None,1141.1977516380139,1143.5640483610332,1141.1977516380139,1143.5640483610332,1143.5640483610332,None,1143.5640483610332,None,space,0.36771557782776654,1143.5640483610332,None,2.3631,1144.0624345268589,None,,,,,,,DEC021,001,2022_Nov_12_1037,2-25_cond_decay_EYE-try,2021.2.3,120.20599136915529,
left,0.75,1.0,0,1,0,1,0,2,0,2,0,1,7,17,5,,,,,,,,,,,,,,,5s,1145.1213303520344,1146.1228157610167,1146.1137211208697,None,1147.1136872749776,1151.6803855989128,1147.1136872749776,1151.6803855989128,1151.6726877340116,1152.6725284759887,1151.6726877340116,1152.6725284759887,None,,1151.6726877340116,1152.6725284759887,4.5654,1152.8042163520586,None,,,,,,,DEC021,001,2022_Nov_12_1037,2-25_cond_decay_EYE-try,2021.2.3,120.20599136915529,
left,0.75,1.0,0,1,0,1,0,2,0,2,0,1,8,18,4,,,,,,,,,,,,,,,5s,1153.8628734918311,1154.8637354548555,1154.8476481658872,None,1155.8475971438456,1157.347703358857,1155.8475971438456,1157.347703358857,1157.347703358857,None,1157.347703358857,None,space,0.3753908849321306,1157.347703358857,None,1.4958,1157.8546413178556,None,,,,,,,DEC021,001,2022_Nov_12_1037,2-25_cond_decay_EYE-try,2021.2.3,120.20599136915529,
right,1.0,0.75,0,1,0,1,0,2,0,2,0,1,9,19,6,,,,,,,,,,,,,,,5s,1158.9063801928423,1159.9062725009862,1159.8980095789302,None,1160.8976024228614,1162.131206562044,1160.8976024228614,1162.131206562044,1162.131206562044,None,1162.131206562044,None,space,0.3856276790611446,1162.131206562044,None,1.2308,1162.6457987478934,None,,,,,,,DEC021,001,2022_Nov_12_1037,2-25_cond_decay_EYE-try,2021.2.3,120.20599136915529,
,,,,1,0,1,0,2,0,2,0,,,,,,,,,,,,,,,,,,,,,,,,,,,,,,,,,,,,,,,,,,,,,DEC021,001,2022_Nov_12_1037,2-25_cond_decay_EYE-try,2021.2.3,120.20599136915529,
right,1.0,0.75,0,1,0,1,0,3,0,3,0,0,0,0,6,,,,,,,,,1163.5378775920253,None,1163.5378775920253,None,1163.5378775920253,None,10s,1164.7296685068868,1165.7306465520523,1165.722231203923,None,1166.7225352008827,1169.7474774280563,1166.7225352008827,1169.7474774280563,1169.7474774280563,None,1169.7474774280563,None,space,0.46952110691927373,1169.7474774280563,None,3.0236,1170.3459568559192,None,,,,,,,DEC021,001,2022_Nov_12_1037,2-25_cond_decay_EYE-try,2021.2.3,120.20599136915529,
left,1.0,0.75,1,1,0,1,0,3,0,3,0,0,1,1,4,,,,,,,,,,,,,,,10s,1171.4048913519364,1172.405568024842,1172.3972224839963,None,1173.3982017240487,1177.5396622200496,1173.3982017240487,1177.5396622200496,1177.5396622200496,None,1177.5396622200496,None,space,0.3836987051181495,1177.5396622200496,None,4.1393,1178.054379638983,None,,,,,,,DEC021,001,2022_Nov_12_1037,2-25_cond_decay_EYE-try,2021.2.3,120.20599136915529,
right,1.0,0.75,0,1,0,1,0,3,0,3,0,0,2,2,0,,,,,,,,,,,,,,,10s,1179.113108108053,1180.1146556269377,1180.1064722898882,None,1181.1066060219891,1189.4147634538822,1181.1066060219891,1189.4147634538822,1189.4062938049901,None,1189.4062938049901,None,space,0.5857928241603076,1189.4062938049901,None,8.3058,1190.1219247840345,None,,,,,,,DEC021,001,2022_Nov_12_1037,2-25_cond_decay_EYE-try,2021.2.3,120.20599136915529,
left,0.75,1.0,0,1,0,1,0,3,0,3,0,0,3,3,3,,,,,,,,,,,,,,,10s,1191.1799148628488,1192.1816196588334,1192.1650405079126,None,1193.1643502318766,1203.015042555984,1193.1643502318766,1203.015042555984,1203.015042555984,None,1203.015042555984,None,space,0.394172108033672,1203.015042555984,None,9.8436,1203.53878067201,None,,,,,,,DEC021,001,2022_Nov_12_1037,2-25_cond_decay_EYE-try,2021.2.3,120.20599136915529,
right,1.0,0.75,0,1,0,1,0,3,0,3,0,0,4,4,5,,,,,,,,,,,,,,,10s,1204.5967589509673,1205.598178826971,1205.5892351600341,None,1206.5891511968803,1207.231827647891,1206.5891511968803,1207.231827647891,1207.231827647891,None,1207.231827647891,None,None,,1207.231827647891,None,0.6397,1208.3550371930469,None,,,,,,,DEC021,001,2022_Nov_12_1037,2-25_cond_decay_EYE-try,2021.2.3,120.20599136915529,
right,1.0,0.75,0,1,0,1,0,3,0,3,0,0,5,5,1,,,,,,,,,,,,,,,10s,1209.4132236200385,1210.4151480898727,1210.4067641559523,None,1211.4059579309542,1220.26515328791,1211.4059579309542,1220.26515328791,1220.2564499708824,1221.2568443019409,1220.2564499708824,1221.2568443019409,None,,1220.2564499708824,1221.2568443019409,8.8545,1221.3815769478679,None,,,,,,,DEC021,001,2022_Nov_12_1037,2-25_cond_decay_EYE-try,2021.2.3,120.20599136915529,
right,0.75,1.0,1,1,0,1,0,3,0,3,0,0,6,6,2,,,,,,,,,,,,,,,10s,1222.4471655529924,1223.4481015738565,1223.4315163260326,None,1224.4317510880064,1225.2318285759538,1224.4317510880064,1225.2318285759538,1225.2318285759538,None,1225.2318285759538,None,space,0.4437605128623545,1225.2318285759538,None,0.7977,1225.8070610950235,None,,,,,,,DEC021,001,2022_Nov_12_1037,2-25_cond_decay_EYE-try,2021.2.3,120.20599136915529,
left,0.75,1.0,0,1,0,1,0,3,0,3,0,0,7,7,8,,,,,,,,,,,,,,,10s,1226.8637277458329,1227.865044025937,1227.8566885439213,None,1228.8567342718598,1236.9399452400394,1228.8567342718598,1236.9399452400394,1236.9399452400394,None,1236.9399452400394,None,space,0.5364748251158744,1236.9399452400394,None,8.0811,1237.6058313508984,None,,,,,,,DEC021,001,2022_Nov_12_1037,2-25_cond_decay_EYE-try,2021.2.3,120.20599136915529,
left,0.75,1.0,0,1,0,1,0,3,0,3,0,0,8,8,7,,,,,,,,,,,,,,,10s,1238.6640059398487,1239.6647213308606,1239.6564657038543,None,1240.6563642260153,1248.7733038088772,1240.6563642260153,1248.7733038088772,1248.7655236150604,None,1248.7655236150604,None,space,0.36696018604561687,1248.7655236150604,None,8.1133,1249.256915829843,None,,,,,,,DEC021,001,2022_Nov_12_1037,2-25_cond_decay_EYE-try,2021.2.3,120.20599136915529,
right,1.0,0.75,0,1,0,1,0,3,0,3,0,0,9,9,9,,,,,,,,,,,,,,,10s,1250.3223302038386,1251.323752242839,1251.3074262070004,None,1252.3066254269797,1254.5735855759121,1252.3066254269797,1254.5735855759121,1254.5735855759121,None,1254.5735855759121,None,None,,1254.5735855759121,None,2.267,1255.6972920850385,None,,,,,,,DEC021,001,2022_Nov_12_1037,2-25_cond_decay_EYE-try,2021.2.3,120.20599136915529,
right,1.0,0.75,0,1,0,1,0,3,0,3,0,1,0,10,0,,,,,,,,,,,,,,,10s,1256.7468362138607,1257.748316095909,1257.7398937849794,None,1258.740127736004,1260.4486238060053,1258.740127736004,1260.4486238060053,1260.4486238060053,None,1260.4486238060053,None,space,0.4359875600785017,1260.4486238060053,None,1.7057,1261.0136293899268,None,,,,,,,DEC021,001,2022_Nov_12_1037,2-25_cond_decay_EYE-try,2021.2.3,120.20599136915529,
left,0.75,1.0,0,1,0,1,0,3,0,3,0,1,1,11,8,,,,,,,,,,,,,,,10s,1262.072442672914,1263.073553504888,1263.0653462968767,None,1264.065415467834,1269.5574636668898,1264.065415467834,1269.5574636668898,1269.5488581720274,None,1269.5488581720274,None,space,0.8083526310510933,1269.5488581720274,None,5.4849,1270.4823991588783,None,,,,,,,DEC021,001,2022_Nov_12_1037,2-25_cond_decay_EYE-try,2021.2.3,120.20599136915529,
right,1.0,0.75,0,1,0,1,0,3,0,3,0,1,2,12,5,,,,,,,,,,,,,,,10s,1271.5474598398432,1272.5482958438806,1272.5324722609948,None,1273.532368189888,1283.2654237458482,1273.532368189888,1283.2654237458482,1283.2654237458482,None,1283.2654237458482,None,space,0.4023083499632776,1283.2654237458482,None,9.7317,1283.7974821960088,None,,,,,,,DEC021,001,2022_Nov_12_1037,2-25_cond_decay_EYE-try,2021.2.3,120.20599136915529,
right,1.0,0.75,0,1,0,1,0,3,0,3,0,1,3,13,1,,,,,,,,,,,,,,,10s,1284.8494475809857,1285.849178422941,1285.849178422941,None,1286.8485563348513,1288.9069203790277,1286.8485563348513,1288.9069203790277,1288.8993930318393,None,1288.8993930318393,None,space,0.4167439350858331,1288.8993930318393,None,2.0576,1289.4477930408902,None,,,,,,,DEC021,001,2022_Nov_12_1037,2-25_cond_decay_EYE-try,2021.2.3,120.20599136915529,
right,0.75,1.0,1,1,0,1,0,3,0,3,0,1,4,14,2,,,,,,,,,,,,,,,10s,1290.498603577027,1291.4991716470104,1291.4907152468804,None,1292.490998914931,1296.8822340120096,1292.490998914931,1296.8822340120096,1296.8822340120096,None,1296.8822340120096,None,space,0.41689634299837053,1296.8822340120096,None,4.3899,1297.4306553590577,None,,,,,,,DEC021,001,2022_Nov_12_1037,2-25_cond_decay_EYE-try,2021.2.3,120.20599136915529,
right,1.0,0.75,0,1,0,1,0,3,0,3,0,1,5,15,9,,,,,,,,,,,,,,,10s,1298.4891412670258,1299.4911179649644,1299.4827996138483,None,1300.4819882689044,1305.5992404208519,1300.4819882689044,1305.5992404208519,1305.5907139738556,None,1305.5907139738556,None,space,0.41969660110771656,1305.5907139738556,None,5.1119,1306.1394661699887,None,,,,,,,DEC021,001,2022_Nov_12_1037,2-25_cond_decay_EYE-try,2021.2.3,120.20599136915529,
left,0.75,1.0,0,1,0,1,0,3,0,3,0,1,6,16,7,,,,,,,,,,,,,,,10s,1307.1973588219844,1308.199045266956,1308.190774839837,None,1309.190780133009,1315.5324937000405,1309.190780133009,1315.5324937000405,1315.5241056329105,None,1315.5241056329105,None,space,0.3835042479913682,1315.5241056329105,None,6.3356,1316.039086092962,None,,,,,,,DEC021,001,2022_Nov_12_1037,2-25_cond_decay_EYE-try,2021.2.3,120.20599136915529,
left,0.75,1.0,0,1,0,1,0,3,0,3,0,1,7,17,6,,,,,,,,,,,,,,,10s,1317.097618555883,1318.0988388608675,1318.0908613509964,None,1319.0907818088308,1320.0911726618651,1319.0907818088308,1320.0911726618651,1320.0911726618651,None,1320.0911726618651,None,space,0.4774575938936323,1320.0911726618651,None,1.0003,1320.6979375579394,None,,,,,,,DEC021,001,2022_Nov_12_1037,2-25_cond_decay_EYE-try,2021.2.3,120.20599136915529,
left,0.75,1.0,0,1,0,1,0,3,0,3,0,1,8,18,3,,,,,,,,,,,,,,,10s,1321.7483153999783,1322.7487916708924,1322.740757806925,None,1323.7410193120595,1332.3660173709504,1323.7410193120595,1332.3660173709504,1332.3581667409744,None,1332.3581667409744,None,space,0.39978636894375086,1332.3581667409744,None,8.6194,1332.8899280319456,None,,,,,,,DEC021,001,2022_Nov_12_1037,2-25_cond_decay_EYE-try,2021.2.3,120.20599136915529,
left,1.0,0.75,1,1,0,1,0,3,0,3,0,1,9,19,4,,,,,,,,,,,,,,,10s,1333.947653905023,1334.9496498298831,1334.941324736923,None,1335.9406004368793,1342.0162702179514,1335.9406004368793,1342.0162702179514,1342.0162702179514,None,1342.0162702179514,None,space,0.3358022978063673,1342.0162702179514,None,6.0751,1342.4819081148598,None,,,,,,,DEC021,001,2022_Nov_12_1037,2-25_cond_decay_EYE-try,2021.2.3,120.20599136915529,
,,,,1,0,1,0,3,0,3,0,,,,,,,,,,,,,,,,,,,,,,,,,,,,,,,,,,,,,,,,,,,,,DEC021,001,2022_Nov_12_1037,2-25_cond_decay_EYE-try,2021.2.3,120.20599136915529,
,,,,1,0,1,0,,,,,,,,,,,,,,,,,,,,,,,,,,,,,,,,,,,,,,,,,,,1343.3736757638399,None,1343.3736757638399,None,1343.3736757638399,None,DEC021,001,2022_Nov_12_1037,2-25_cond_decay_EYE-try,2021.2.3,120.20599136915529,
right,1.0,0.75,0,2,0,2,0,0,0,0,0,0,0,0,7,,,,,,,,,1348.3733440069482,None,1348.3733440069482,None,1348.3733440069482,None,10s,1350.5146328778937,1351.5161688928492,1351.5000175728928,None,1352.4991328939795,1354.9247079889756,1352.4991328939795,1354.9247079889756,1354.932500547031,None,1354.932500547031,None,space,0.4008197020739317,1354.932500547031,None,2.4252,1355.464953234885,None,,,,,,,DEC021,001,2022_Nov_12_1037,2-25_cond_decay_EYE-try,2021.2.3,120.20599136915529,
left,0.75,1.0,0,2,0,2,0,0,0,0,0,0,1,1,6,,,,,,,,,,,,,,,10s,1356.5234151368495,1357.524252976058,1357.508253218839,None,1358.5081201458815,1365.2997428129893,1358.5081201458815,1365.2997428129893,1365.2997428129893,None,1365.2997428129893,None,space,0.36889801104553044,1365.2997428129893,None,6.7905,1365.7983234529383,None,,,,,,,DEC021,001,2022_Nov_12_1037,2-25_cond_decay_EYE-try,2021.2.3,120.20599136915529,
right,1.0,0.75,0,2,0,2,0,0,0,0,0,0,2,2,3,,,,,,,,,,,,,,,10s,1366.85625256598,1367.85834409995,1367.841688232962,None,1368.8410854469985,1373.8418761289213,1368.8410854469985,1373.8418761289213,1373.8418761289213,None,1373.8418761289213,None,space,0.402611869154498,1373.8418761289213,None,4.9993,1374.3732381109148,None,,,,,,,DEC021,001,2022_Nov_12_1037,2-25_cond_decay_EYE-try,2021.2.3,120.20599136915529,
right,1.0,0.75,0,2,0,2,0,0,0,0,0,0,3,3,2,,,,,,,,,,,,,,,10s,1375.431486363057,1376.432818692876,1376.4245243899059,None,1377.4250492579304,1378.925032690866,1377.4250492579304,1378.925032690866,1378.9162329018582,None,1378.9162329018582,None,space,0.38440023083239794,1378.9162329018582,None,1.4932,1379.4319457940292,None,,,,,,,DEC021,001,2022_Nov_12_1037,2-25_cond_decay_EYE-try,2021.2.3,120.20599136915529,
right,1.0,0.75,0,2,0,2,0,0,0,0,0,0,4,4,5,,,,,,,,,,,,,,,10s,1380.4901975370012,1381.4918153379112,1381.483526510885,None,1382.4834807489533,1385.8418829930015,1382.4834807489533,1385.8418829930015,1385.8332786678802,None,1385.8332786678802,None,space,0.34388801408931613,1385.8332786678802,None,3.3539,1386.3070729249157,None,,,,,,,DEC021,001,2022_Nov_12_1037,2-25_cond_decay_EYE-try,2021.2.3,120.20599136915529,
left,0.75,1.0,0,2,0,2,0,0,0,0,0,0,5,5,1,,,,,,,,,,,,,,,10s,1387.365249773953,1388.3661435639951,1388.3579131569713,None,1389.3578018129338,1392.508193747839,1389.3578018129338,1392.508193747839,1392.508193747839,None,1392.508193747839,None,space,0.4442891851067543,1392.508193747839,None,3.1478,1393.0816682840232,None,,,,,,,DEC021,001,2022_Nov_12_1037,2-25_cond_decay_EYE-try,2021.2.3,120.20599136915529,
left,0.75,1.0,0,2,0,2,0,0,0,0,0,0,6,6,4,,,,,,,,,,,,,,,10s,1394.1399751340505,1395.1420077870134,1395.132865811931,None,1396.1328799249604,1399.6671922388487,1396.1328799249604,1399.6671922388487,1399.6671922388487,None,1399.6671922388487,None,space,0.4085252408403903,1399.6671922388487,None,3.5321,1400.2074436428957,None,,,,,,,DEC021,001,2022_Nov_12_1037,2-25_cond_decay_EYE-try,2021.2.3,120.20599136915529,
right,0.75,1.0,1,2,0,2,0,0,0,0,0,0,7,7,9,,,,,,,,,,,,,,,10s,1401.2656438548584,1402.2667668838985,1402.250222499948,None,1403.2498656779062,1411.15066819801,1403.2498656779062,1411.15066819801,1411.15066819801,None,1411.15066819801,None,space,0.5170898181386292,1411.15066819801,None,7.8945,1411.7988209200557,None,,,,,,,DEC021,001,2022_Nov_12_1037,2-25_cond_decay_EYE-try,2021.2.3,120.20599136915529,
left,0.75,1.0,0,2,0,2,0,0,0,0,0,0,8,8,8,,,,,,,,,,,,,,,10s,1412.8572097329888,1413.8587311320007,1413.8416783460416,None,1414.842384721851,1420.150847011013,1414.842384721851,1420.150847011013,1420.150847011013,None,1420.150847011013,None,space,0.393737233011052,1420.150847011013,None,5.3028,1420.6740544459317,None,,,,,,,DEC021,001,2022_Nov_12_1037,2-25_cond_decay_EYE-try,2021.2.3,120.20599136915529,
left,1.0,0.75,1,2,0,2,0,0,0,0,0,0,9,9,0,,,,,,,,,,,,,,,10s,1421.7326093818992,1422.7337612358388,1422.7254406060092,None,1423.7257162579335,1431.6751614159439,1423.7257162579335,1431.6751614159439,1431.6751614159439,None,1431.6751614159439,None,space,0.31146073108538985,1431.6751614159439,None,7.95,1432.11555520189,None,,,,,,,DEC021,001,2022_Nov_12_1037,2-25_cond_decay_EYE-try,2021.2.3,120.20599136915529,
right,1.0,0.75,0,2,0,2,0,0,0,0,0,1,0,10,7,,,,,,,,,,,,,,,10s,1433.1745013389736,1434.175557168899,1434.1590793209616,None,1435.158657497028,1440.9084232910536,1435.158657497028,1440.9084232910536,1440.9084232910536,None,1440.9084232910536,None,space,0.3840016149915755,1440.9084232910536,None,5.7492,1441.4240896708798,None,,,,,,,DEC021,001,2022_Nov_12_1037,2-25_cond_decay_EYE-try,2021.2.3,120.20599136915529,
right,1.0,0.75,0,2,0,2,0,0,0,0,0,1,1,11,3,,,,,,,,,,,,,,,10s,1442.475756564876,1443.4753674929962,1443.4670829440001,None,1444.466909545008,1447.9169507890474,1444.466909545008,1447.9169507890474,1447.9169507890474,None,1447.9169507890474,None,space,0.33418477908708155,1447.9169507890474,None,3.4512,1448.3827563768718,None,,,,,,,DEC021,001,2022_Nov_12_1037,2-25_cond_decay_EYE-try,2021.2.3,120.20599136915529,
right,1.0,0.75,0,2,0,2,0,0,0,0,0,1,2,12,5,,,,,,,,,,,,,,,10s,1449.4412512888666,1450.442386705894,1450.4344225400127,None,1451.4342572770547,1451.9090825188905,1451.4342572770547,1451.9090825188905,1451.9006215129048,1452.9003859618679,1451.9006215129048,1452.9003859618679,None,,1451.9006215129048,1452.9003859618679,0.4743,1453.0330718948971,None,,,,,,,DEC021,001,2022_Nov_12_1037,2-25_cond_decay_EYE-try,2021.2.3,120.20599136915529,
right,1.0,0.75,0,2,0,2,0,0,0,0,0,1,3,13,2,,,,,,,,,,,,,,,10s,1454.091014840873,1455.0925475868862,1455.083638174925,None,1456.083953796886,1464.3679289119318,1456.083953796886,1464.3679289119318,1464.3679289119318,None,1464.3679289119318,None,space,0.4026851449161768,1464.3679289119318,None,8.2831,1464.8998065639753,None,,,,,,,DEC021,001,2022_Nov_12_1037,2-25_cond_decay_EYE-try,2021.2.3,120.20599136915529,
left,1.0,0.75,1,2,0,2,0,0,0,0,0,1,4,14,0,,,,,,,,,,,,,,,10s,1465.9580768349115,1466.95913152094,1466.9419904588722,None,1467.9429168889765,1471.8511665710248,1467.9429168889765,1471.8511665710248,1471.8511665710248,None,1471.8511665710248,None,space,0.5099782280158252,1471.8511665710248,None,3.903,1472.4907962868456,None,,,,,,,DEC021,001,2022_Nov_12_1037,2-25_cond_decay_EYE-try,2021.2.3,120.20599136915529,
left,0.75,1.0,0,2,0,2,0,0,0,0,0,1,5,15,1,,,,,,,,,,,,,,,10s,1473.5413639529143,1474.5420489399694,1474.5341708320193,None,1475.5338363328483,1483.1256031009834,1475.5338363328483,1483.1256031009834,1483.1179776720237,None,1483.1179776720237,None,space,0.4353090838994831,1483.1179776720237,None,7.586,1483.6833484440576,None,,,,,,,DEC021,001,2022_Nov_12_1037,2-25_cond_decay_EYE-try,2021.2.3,120.20599136915529,
left,0.75,1.0,0,2,0,2,0,0,0,0,0,1,6,16,6,,,,,,,,,,,,,,,10s,1484.7334928128403,1485.734768132912,1485.7257050049957,None,1486.7258000660222,1496.0257099180017,1486.7258000660222,1496.0257099180017,1496.0180528380442,None,1496.0180528380442,None,space,0.4257079539820552,1496.0180528380442,None,9.2941,1496.575127006974,None,,,,,,,DEC021,001,2022_Nov_12_1037,2-25_cond_decay_EYE-try,2021.2.3,120.20599136915529,
left,0.75,1.0,0,2,0,2,0,0,0,0,0,1,7,17,8,,,,,,,,,,,,,,,10s,1497.6326857130043,1498.6344341388904,1498.617647395935,None,1499.6173597020097,1503.292337520048,1499.6173597020097,1503.292337520048,1503.292337520048,None,1503.292337520048,None,space,0.6448616499546915,1503.292337520048,None,3.6742,1504.0670843569096,None,,,,,,,DEC021,001,2022_Nov_12_1037,2-25_cond_decay_EYE-try,2021.2.3,120.20599136915529,
left,0.75,1.0,0,2,0,2,0,0,0,0,0,1,8,18,4,,,,,,,,,,,,,,,10s,1505.1170826668385,1506.1178288699593,1506.1015468488913,None,1507.1015290748328,1511.9595000180416,1507.1015290748328,1511.9595000180416,1511.9595000180416,None,1511.9595000180416,None,space,0.36951744090765715,1511.9595000180416,None,4.8586,1512.458478567889,None,,,,,,,DEC021,001,2022_Nov_12_1037,2-25_cond_decay_EYE-try,2021.2.3,120.20599136915529,
right,0.75,1.0,1,2,0,2,0,0,0,0,0,1,9,19,9,,,,,,,,,,,,,,,10s,1513.5164656180423,1514.517575938953,1514.5095216860063,None,1515.5099726628978,1518.609714856837,1515.5099726628978,1518.609714856837,1518.6009409329854,None,1518.6009409329854,None,space,0.38669481314718723,1518.6009409329854,None,3.0939,1519.1167035729159,None,,,,,,,DEC021,001,2022_Nov_12_1037,2-25_cond_decay_EYE-try,2021.2.3,120.20599136915529,
,,,,2,0,2,0,0,0,0,0,,,,,,,,,,,,,,,,,,,,,,,,,,,,,,,,,,,,,,,,,,,,,DEC021,001,2022_Nov_12_1037,2-25_cond_decay_EYE-try,2021.2.3,120.20599136915529,
left,0.75,1.0,0,2,0,2,0,1,0,1,0,0,0,0,2,,,,,,,,,1520.0081295939162,None,1520.0081295939162,None,1520.0081295939162,None,1s,1522.0515115968883,1523.0515113640577,1523.0432362519205,None,1524.0433396480512,1524.3015135859605,1524.0433396480512,1524.3015135859605,1524.3015135859605,None,1524.3015135859605,None,space,0.3501037841197103,1524.3015135859605,None,0.2569,1524.7836750149727,None,,,,,,,DEC021,001,2022_Nov_12_1037,2-25_cond_decay_EYE-try,2021.2.3,120.20599136915529,
right,1.0,0.75,0,2,0,2,0,1,0,1,0,0,1,1,5,,,,,,,,,,,,,,,1s,1525.8423700600397,1526.8430358429905,1526.8260608520359,None,1527.8262287790421,1527.99354872806,1527.8262287790421,1527.99354872806,1527.99354872806,None,1527.99354872806,None,space,0.33557431399822235,1527.99354872806,None,0.1662,1528.4582494690549,None,,,,,,,DEC021,001,2022_Nov_12_1037,2-25_cond_decay_EYE-try,2021.2.3,120.20599136915529,
right,1.0,0.75,0,2,0,2,0,1,0,1,0,0,2,2,1,,,,,,,,,,,,,,,1s,1529.5081445078831,1530.5094094639644,1530.5013065699022,None,1531.5011345339008,1531.8762477089185,1531.5011345339008,1531.8762477089185,1531.8762477089185,None,1531.8762477089185,None,space,0.31944659212604165,1531.8762477089185,None,0.3708,1532.325041506905,None,,,,,,,DEC021,001,2022_Nov_12_1037,2-25_cond_decay_EYE-try,2021.2.3,120.20599136915529,
left,1.0,0.75,1,2,0,2,0,1,0,1,0,0,3,3,9,,,,,,,,,,,,,,,1s,1533.383084757952,1534.3849747779313,1534.376805047039,None,1535.3772110110149,1536.1514811909292,1535.3772110110149,1536.1514811909292,1536.1429423079826,None,1536.1429423079826,None,space,0.2921416361350566,1536.1429423079826,None,0.7683,1536.5600540698506,None,,,,,,,DEC021,001,2022_Nov_12_1037,2-25_cond_decay_EYE-try,2021.2.3,120.20599136915529,
right,1.0,0.75,0,2,0,2,0,1,0,1,0,0,4,4,8,,,,,,,,,,,,,,,1s,1537.6251165808644,1538.6262457838748,1538.61794855888,None,1539.6179943650495,1539.843085048953,1539.6179943650495,1539.843085048953,1539.843085048953,None,1539.843085048953,None,None,,1539.843085048953,None,0.2204,1540.9675064058974,None,,,,,,,DEC021,001,2022_Nov_12_1037,2-25_cond_decay_EYE-try,2021.2.3,120.20599136915529,
left,0.75,1.0,0,2,0,2,0,1,0,1,0,0,5,5,7,,,,,,,,,,,,,,,1s,1542.0257652099244,1543.0271225220058,1543.0179326029029,None,1544.0185143810231,1544.5184387778863,1544.0185143810231,1544.5184387778863,1544.5098142300267,None,1544.5098142300267,None,space,0.28582960390485823,1544.5098142300267,None,0.4969,1544.925127918832,None,,,,,,,DEC021,001,2022_Nov_12_1037,2-25_cond_decay_EYE-try,2021.2.3,120.20599136915529,
left,0.75,1.0,0,2,0,2,0,1,0,1,0,0,6,6,4,,,,,,,,,,,,,,,1s,1545.9842667418998,1546.9852180080488,1546.9771171528846,None,1547.9682817428838,1548.3595762609039,1547.9682817428838,1548.3595762609039,1548.3595762609039,None,1548.3595762609039,None,space,0.33642956498079,1548.3595762609039,None,0.3914,1548.8257878669538,None,,,,,,,DEC021,001,2022_Nov_12_1037,2-25_cond_decay_EYE-try,2021.2.3,120.20599136915529,
right,0.75,1.0,1,2,0,2,0,1,0,1,0,0,7,7,0,,,,,,,,,,,,,,,1s,1549.8760502948426,1550.8766977149062,1550.8683349019848,None,1551.8683624400292,1552.7267798639368,1551.8683624400292,1552.7267798639368,1552.7185028670356,None,1552.7185028670356,None,space,0.29427923704497516,1552.7185028670356,None,0.8516,1553.1420878779609,None,,,,,,,DEC021,001,2022_Nov_12_1037,2-25_cond_decay_EYE-try,2021.2.3,120.20599136915529,
right,1.0,0.75,0,2,0,2,0,1,0,1,0,0,8,8,6,,,,,,,,,,,,,,,1s,1554.2008220918942,1555.2015162790194,1555.193028897047,None,1556.1934378119186,1556.8017172149848,1556.1934378119186,1556.8017172149848,1556.8017172149848,None,1556.8017172149848,None,space,0.30011301999911666,1556.8017172149848,None,0.6077,1557.2270074828994,None,,,,,,,DEC021,001,2022_Nov_12_1037,2-25_cond_decay_EYE-try,2021.2.3,120.20599136915529,
left,0.75,1.0,0,2,0,2,0,1,0,1,0,0,9,9,3,,,,,,,,,,,,,,,1s,1558.2924660998397,1559.2931108109187,1559.284793495899,None,1560.2855607399251,1560.726823464036,1560.2855607399251,1560.726823464036,1560.726823464036,None,1560.726823464036,None,space,0.2607669858261943,1560.726823464036,None,0.4396,1561.1169870139565,None,,,,,,,DEC021,001,2022_Nov_12_1037,2-25_cond_decay_EYE-try,2021.2.3,120.20599136915529,
right,1.0,0.75,0,2,0,2,0,1,0,1,0,1,0,10,8,,,,,,,,,,,,,,,1s,1562.1674289009534,1563.1688427350018,1563.1606081570499,None,1564.1599640068598,1564.7017449119594,1564.1599640068598,1564.7017449119594,1564.7017449119594,None,1564.7017449119594,None,space,0.2606785870157182,1564.7017449119594,None,0.5409,1565.0919697019272,None,,,,,,,DEC021,001,2022_Nov_12_1037,2-25_cond_decay_EYE-try,2021.2.3,120.20599136915529,
right,1.0,0.75,0,2,0,2,0,1,0,1,0,1,1,11,1,,,,,,,,,,,,,,,1s,1566.1507587770466,1567.1519658230245,1567.143585108919,None,1568.143870186992,1568.4265972629655,1568.143870186992,1568.4265972629655,1568.418817476835,None,1568.418817476835,None,space,0.310408626915887,1568.418817476835,None,0.2801,1568.8591702859849,None,,,,,,,DEC021,001,2022_Nov_12_1037,2-25_cond_decay_EYE-try,2021.2.3,120.20599136915529,
left,0.75,1.0,0,2,0,2,0,1,0,1,0,1,2,12,3,,,,,,,,,,,,,,,1s,1569.9172531520016,1570.9189214990474,1570.9106224728748,None,1571.909772663843,1572.193941690959,1571.909772663843,1572.193941690959,1572.1853004968725,None,1572.1853004968725,None,space,0.30829418916255236,1572.1853004968725,None,0.2782,1572.6187219929416,None,,,,,,,DEC021,001,2022_Nov_12_1037,2-25_cond_decay_EYE-try,2021.2.3,120.20599136915529,
right,0.75,1.0,1,2,0,2,0,1,0,1,0,1,3,13,0,,,,,,,,,,,,,,,1s,1573.6846219028812,1574.6848705280572,1574.6767247989774,None,1575.6768480208702,1576.2186480839737,1575.6768480208702,1576.2186480839737,1576.2098712138832,None,1576.2098712138832,None,space,0.30318050598725677,1576.2098712138832,None,0.5369,1576.6422287879977,None,,,,,,,DEC021,001,2022_Nov_12_1037,2-25_cond_decay_EYE-try,2021.2.3,120.20599136915529,
left,1.0,0.75,1,2,0,2,0,1,0,1,0,1,4,14,9,,,,,,,,,,,,,,,1s,1577.700907047838,1578.7019669360016,1578.693764925003,None,1579.693635630887,1580.0021664130036,1579.693635630887,1580.0021664130036,1580.0021664130036,None,1580.0021664130036,None,space,0.2862466948572546,1580.0021664130036,None,0.3081,1580.4175261040218,None,,,,,,,DEC021,001,2022_Nov_12_1037,2-25_cond_decay_EYE-try,2021.2.3,120.20599136915529,
right,1.0,0.75,0,2,0,2,0,1,0,1,0,1,5,15,5,,,,,,,,,,,,,,,1s,1581.4753297108691,1582.4772764728405,1582.4687773620244,None,1583.4683729058597,1584.4524166740011,1583.4683729058597,1584.4524166740011,1584.4524166740011,None,1584.4524166740011,None,space,0.27676050807349384,1584.4524166740011,None,0.9837,1584.858749245992,None,,,,,,,DEC021,001,2022_Nov_12_1037,2-25_cond_decay_EYE-try,2021.2.3,120.20599136915529,
right,1.0,0.75,0,2,0,2,0,1,0,1,0,1,6,16,6,,,,,,,,,,,,,,,1s,1585.917722061975,1586.9187452169135,1586.9107072888874,None,1587.910688869888,1588.8853934679646,1587.910688869888,1588.8853934679646,1588.8853934679646,None,1588.8853934679646,None,space,0.2860021509695798,1588.8853934679646,None,0.9736,1589.3010332768317,None,,,,,,,DEC021,001,2022_Nov_12_1037,2-25_cond_decay_EYE-try,2021.2.3,120.20599136915529,
left,0.75,1.0,0,2,0,2,0,1,0,1,0,1,7,17,2,,,,,,,,,,,,,,,1s,1590.3593602529727,1591.3602543049492,1591.3440057970583,None,1592.3434072888922,1593.301900323946,1592.3434072888922,1593.301900323946,1593.301900323946,None,1593.301900323946,None,space,0.30949431587941945,1593.301900323946,None,0.9572,1593.7430321930442,None,,,,,,,DEC021,001,2022_Nov_12_1037,2-25_cond_decay_EYE-try,2021.2.3,120.20599136915529,
left,0.75,1.0,0,2,0,2,0,1,0,1,0,1,8,18,7,,,,,,,,,,,,,,,1s,1594.8005742100067,1595.8025851268321,1595.794257524889,None,1596.7942185578868,1597.1359106148593,1596.7942185578868,1597.1359106148593,1597.1274830978364,None,1597.1274830978364,None,space,0.38571502501145005,1597.1274830978364,None,0.3387,1597.642513752915,None,,,,,,,DEC021,001,2022_Nov_12_1037,2-25_cond_decay_EYE-try,2021.2.3,120.20599136915529,
left,0.75,1.0,0,2,0,2,0,1,0,1,0,1,9,19,4,,,,,,,,,,,,,,,1s,1598.7012804569677,1599.7024970429484,1599.6933764920104,None,1600.6934299068525,1601.1852916909847,1600.6934299068525,1601.1852916909847,1601.1852916909847,None,1601.1852916909847,None,space,0.2845570519566536,1601.1852916909847,None,0.4921,1601.600573973963,None,,,,,,,DEC021,001,2022_Nov_12_1037,2-25_cond_decay_EYE-try,2021.2.3,120.20599136915529,
,,,,2,0,2,0,1,0,1,0,,,,,,,,,,,,,,,,,,,,,,,,,,,,,,,,,,,,,,,,,,,,,DEC021,001,2022_Nov_12_1037,2-25_cond_decay_EYE-try,2021.2.3,120.20599136915529,
right,1.0,0.75,0,2,0,2,0,2,0,2,0,0,0,0,5,,,,,,,,,1602.4927386029158,None,1602.4927386029158,None,1602.4927386029158,None,3s,1603.9256519349292,1604.9272819298785,1604.919111853931,None,1605.9193834569305,1608.1858546710573,1605.9193834569305,1608.1858546710573,1608.1858546710573,None,1608.1858546710573,None,space,0.3525209960062057,1608.1858546710573,None,2.2659,1608.6674435029272,None,,,,,,,DEC021,001,2022_Nov_12_1037,2-25_cond_decay_EYE-try,2021.2.3,120.20599136915529,
right,0.75,1.0,1,2,0,2,0,2,0,2,0,0,1,1,1,,,,,,,,,,,,,,,3s,1609.7258277619258,1610.7273635398597,1610.7194607648998,None,1611.7188210668974,1614.5270180120133,1611.7188210668974,1614.5270180120133,1614.5270180120133,None,1614.5270180120133,None,space,0.3427023410331458,1614.5270180120133,None,2.8092,1615.0013135110494,None,,,,,,,DEC021,001,2022_Nov_12_1037,2-25_cond_decay_EYE-try,2021.2.3,120.20599136915529,
right,1.0,0.75,0,2,0,2,0,2,0,2,0,0,2,2,8,,,,,,,,,,,,,,,3s,1616.0524339808617,1617.0523719568737,1617.0439918120392,None,1618.044461269863,1620.3442905379925,1618.044461269863,1620.3442905379925,1620.3442905379925,None,1620.3442905379925,None,space,0.38611765997484326,1620.3442905379925,None,2.2982,1620.8591885699425,None,,,,,,,DEC021,001,2022_Nov_12_1037,2-25_cond_decay_EYE-try,2021.2.3,120.20599136915529,
left,0.75,1.0,0,2,0,2,0,2,0,2,0,0,3,3,9,,,,,,,,,,,,,,,3s,1621.9112764189485,1622.9111147189979,1622.9028030170593,None,1623.9022884990554,1624.9520784569904,1623.9022884990554,1624.9520784569904,1624.9520784569904,None,1624.9520784569904,None,space,0.3360270431730896,1624.9520784569904,None,1.0457,1625.4176898039877,None,,,,,,,DEC021,001,2022_Nov_12_1037,2-25_cond_decay_EYE-try,2021.2.3,120.20599136915529,
left,0.75,1.0,0,2,0,2,0,2,0,2,0,0,4,4,7,,,,,,,,,,,,,,,3s,1626.4684460689314,1627.4692910688464,1627.461017993046,None,1628.4610787569545,1629.9354522759095,1628.4610787569545,1629.9354522759095,1629.9278610879555,None,1629.9278610879555,None,space,0.3171586578246206,1629.9278610879555,None,1.4734,1630.376526535023,None,,,,,,,DEC021,001,2022_Nov_12_1037,2-25_cond_decay_EYE-try,2021.2.3,120.20599136915529,
right,1.0,0.75,0,2,0,2,0,2,0,2,0,0,5,5,6,,,,,,,,,,,,,,,3s,1631.4342624179553,1632.4362621018663,1632.427872295957,None,1633.42711151205,1634.2446247609332,1633.42711151205,1634.2446247609332,1634.2446247609332,None,1634.2446247609332,None,space,0.4684321079403162,1634.2446247609332,None,0.8178,1634.8431850369088,None,,,,,,,DEC021,001,2022_Nov_12_1037,2-25_cond_decay_EYE-try,2021.2.3,120.20599136915529,
left,0.75,1.0,0,2,0,2,0,2,0,2,0,0,6,6,0,,,,,,,,,,,,,,,3s,1635.9009161349386,1636.9028001900297,1636.8938139609527,None,1637.893958559027,1640.8690725748893,1637.893958559027,1640.8690725748893,1640.8612961468752,None,1640.8612961468752,None,space,0.3754317229613662,1640.8612961468752,None,2.9693,1641.3679318448994,None,,,,,,,DEC021,001,2022_Nov_12_1037,2-25_cond_decay_EYE-try,2021.2.3,120.20599136915529,
left,0.75,1.0,0,2,0,2,0,2,0,2,0,0,7,7,2,,,,,,,,,,,,,,,3s,1642.4260212739464,1643.4279769968707,1643.4198171009775,None,1644.4198415409774,1644.753051287029,1644.4198415409774,1644.753051287029,1644.7444984370377,None,1644.7444984370377,None,space,0.4440972569864243,1644.7444984370377,None,0.3308,1645.3186485699844,None,,,,,,,DEC021,001,2022_Nov_12_1037,2-25_cond_decay_EYE-try,2021.2.3,120.20599136915529,
right,1.0,0.75,0,2,0,2,0,2,0,2,0,0,8,8,3,,,,,,,,,,,,,,,3s,1646.376029237872,1647.3777678988408,1647.3610673008952,None,1648.3610035788734,1649.0605798498727,1648.3610035788734,1649.0605798498727,1649.0605798498727,None,1649.0605798498727,None,space,0.28598186816088855,1649.0605798498727,None,0.6982,1649.4765926930122,None,,,,,,,DEC021,001,2022_Nov_12_1037,2-25_cond_decay_EYE-try,2021.2.3,120.20599136915529,
right,1.0,0.75,0,2,0,2,0,2,0,2,0,0,9,9,4,,,,,,,,,,,,,,,3s,1650.526693136897,1651.5280458799098,1651.5110013829544,None,1652.5106410388835,1654.2023643788416,1652.5106410388835,1654.2023643788416,1654.2023643788416,None,1654.2023643788416,None,space,0.29484469210729003,1654.2023643788416,None,1.6928,1654.6269691039342,None,,,,,,,DEC021,001,2022_Nov_12_1037,2-25_cond_decay_EYE-try,2021.2.3,120.20599136915529,
left,0.75,1.0,0,2,0,2,0,2,0,2,0,1,0,10,0,,,,,,,,,,,,,,,3s,1655.6850921970326,1656.685909701977,1656.6778843030334,None,1657.6780004729517,1659.4777293649968,1657.6780004729517,1659.4777293649968,1659.47002689098,None,1659.47002689098,None,space,0.47737462911754847,1659.47002689098,None,1.7942,1660.0768950809725,None,,,,,,,DEC021,001,2022_Nov_12_1037,2-25_cond_decay_EYE-try,2021.2.3,120.20599136915529,
right,0.75,1.0,1,2,0,2,0,2,0,2,0,1,1,11,1,,,,,,,,,,,,,,,3s,1661.1348186559044,1662.1357997390442,1662.1194883079734,None,1663.1194145898335,1664.6030024979264,1663.1194145898335,1664.6030024979264,1664.6030024979264,None,1664.6030024979264,None,space,0.3837807229720056,1664.6030024979264,None,1.477,1665.1183031599503,None,,,,,,,DEC021,001,2022_Nov_12_1037,2-25_cond_decay_EYE-try,2021.2.3,120.20599136915529,
right,1.0,0.75,0,2,0,2,0,2,0,2,0,1,2,12,3,,,,,,,,,,,,,,,3s,1666.1771658919752,1667.1777276799548,1667.1695739009883,None,1668.169379709987,1669.7029935989995,1668.169379709987,1669.7029935989995,1669.6945514208637,None,1669.6945514208637,None,space,0.32563114701770246,1669.6945514208637,None,1.5271,1670.152107097907,None,,,,,,,DEC021,001,2022_Nov_12_1037,2-25_cond_decay_EYE-try,2021.2.3,120.20599136915529,
right,1.0,0.75,0,2,0,2,0,2,0,2,0,1,3,13,6,,,,,,,,,,,,,,,3s,1671.2096466210205,1672.2117625758983,1672.2027292849962,None,1673.2033756850287,1675.7115479188506,1673.2033756850287,1675.7115479188506,1675.7115479188506,None,1675.7115479188506,None,space,0.33371013309806585,1675.7115479188506,None,2.5074,1676.1763081389945,None,,,,,,,DEC021,001,2022_Nov_12_1037,2-25_cond_decay_EYE-try,2021.2.3,120.20599136915529,
left,0.75,1.0,0,2,0,2,0,2,0,2,0,1,4,14,9,,,,,,,,,,,,,,,3s,1677.2355647438671,1678.2364549450576,1678.2201971388422,None,1679.2199305859394,1679.4528035039548,1679.2199305859394,1679.4528035039548,1679.4528035039548,None,1679.4528035039548,None,space,0.5026667879428715,1679.4528035039548,None,0.234,1680.085626781918,None,,,,,,,DEC021,001,2022_Nov_12_1037,2-25_cond_decay_EYE-try,2021.2.3,120.20599136915529,
right,1.0,0.75,0,2,0,2,0,2,0,2,0,1,5,15,8,,,,,,,,,,,,,,,3s,1681.143933007028,1682.1451457929797,1682.1283413108904,None,1683.12836882798,1685.1364289389458,1683.12836882798,1685.1364289389458,1685.1364289389458,None,1685.1364289389458,None,space,0.37787460209801793,1685.1364289389458,None,2.0016,1685.6431877310388,None,,,,,,,DEC021,001,2022_Nov_12_1037,2-25_cond_decay_EYE-try,2021.2.3,120.20599136915529,
left,1.0,0.75,1,2,0,2,0,2,0,2,0,1,6,16,5,,,,,,,,,,,,,,,3s,1686.701980917016,1687.702806513058,1687.6945397739764,None,1688.6945207489189,1690.5953653738834,1688.6945207489189,1690.5953653738834,1690.5953653738834,None,1690.5953653738834,None,space,0.4338369460310787,1690.5953653738834,None,1.9007,1691.1606504279189,None,,,,,,,DEC021,001,2022_Nov_12_1037,2-25_cond_decay_EYE-try,2021.2.3,120.20599136915529,
left,0.75,1.0,0,2,0,2,0,2,0,2,0,1,7,17,2,,,,,,,,,,,,,,,3s,1692.2099980229978,1693.2116577189881,1693.1944254909176,None,1694.1945150948595,1696.7113759508356,1694.1945150948595,1696.7113759508356,1696.7113759508356,None,1696.7113759508356,None,space,0.37768808705732226,1696.7113759508356,None,2.5159,1697.219060627045,None,,,,,,,DEC021,001,2022_Nov_12_1037,2-25_cond_decay_EYE-try,2021.2.3,120.20599136915529,
right,1.0,0.75,0,2,0,2,0,2,0,2,0,1,8,18,4,,,,,,,,,,,,,,,3s,1698.277463997947,1699.2782646238338,1699.2696821000427,None,1700.27013652795,1701.753408846911,1700.27013652795,1701.753408846911,1701.753408846911,None,1701.753408846911,None,space,0.3190016280859709,1701.753408846911,None,1.483,1702.202157953987,None,,,,,,,DEC021,001,2022_Nov_12_1037,2-25_cond_decay_EYE-try,2021.2.3,120.20599136915529,
left,0.75,1.0,0,2,0,2,0,2,0,2,0,1,9,19,7,,,,,,,,,,,,,,,3s,1703.2604787389282,1704.261504980037,1704.2532691659871,None,1705.2532262869645,1707.0862834658474,1705.2532262869645,1707.0862834658474,1707.0862834658474,None,1707.0862834658474,None,space,0.3177738420199603,1707.0862834658474,None,1.8337,1707.5351533580106,None,,,,,,,DEC021,001,2022_Nov_12_1037,2-25_cond_decay_EYE-try,2021.2.3,120.20599136915529,
,,,,2,0,2,0,2,0,2,0,,,,,,,,,,,,,,,,,,,,,,,,,,,,,,,,,,,,,,,,,,,,,DEC021,001,2022_Nov_12_1037,2-25_cond_decay_EYE-try,2021.2.3,120.20599136915529,
left,0.75,1.0,0,2,0,2,0,3,0,3,0,0,0,0,2,,,,,,,,,1708.42748260987,None,1708.42748260987,None,1708.42748260987,None,5s,1709.5604595649056,1710.5612807578873,1710.5530854340177,None,1711.5532380240038,1715.5204851469025,1711.5532380240038,1715.5204851469025,1715.5118011280429,None,1715.5118011280429,None,space,0.8527694570366293,1715.5118011280429,None,3.9632,1716.4934752320405,None,,,,,,,DEC021,001,2022_Nov_12_1037,2-25_cond_decay_EYE-try,2021.2.3,120.20599136915529,
left,0.75,1.0,0,2,0,2,0,3,0,3,0,0,1,1,1,,,,,,,,,,,,,,,5s,1717.545432009967,1718.5451857489534,1718.5371879008599,None,1719.5369400579948,1721.5868050889112,1719.5369400579948,1721.5868050889112,1721.5868050889112,None,1721.5868050889112,None,space,0.32762630307115614,1721.5868050889112,None,2.046,1722.0438494319096,None,,,,,,,DEC021,001,2022_Nov_12_1037,2-25_cond_decay_EYE-try,2021.2.3,120.20599136915529,
left,0.75,1.0,0,2,0,2,0,3,0,3,0,0,2,2,0,,,,,,,,,,,,,,,5s,1723.1019990239292,1724.1038899049163,1724.095537538873,None,1725.0948794349097,1727.4288784258533,1725.0948794349097,1727.4288784258533,1727.4203622739296,None,1727.4203622739296,None,space,0.29405933804810047,1727.4203622739296,None,2.3289,1727.8443612258416,None,,,,,,,DEC021,001,2022_Nov_12_1037,2-25_cond_decay_EYE-try,2021.2.3,120.20599136915529,
right,1.0,0.75,0,2,0,2,0,3,0,3,0,0,3,3,9,,,,,,,,,,,,,,,5s,1728.9027717618737,1729.9037384288386,1729.895461045904,None,1730.894887961913,1734.7784211179242,1730.894887961913,1734.7784211179242,1734.7784211179242,None,1734.7784211179242,None,None,,1734.7784211179242,None,3.8828,1735.9022692530416,None,,,,,,,DEC021,001,2022_Nov_12_1037,2-25_cond_decay_EYE-try,2021.2.3,120.20599136915529,
right,1.0,0.75,0,2,0,2,0,3,0,3,0,0,4,4,4,,,,,,,,,,,,,,,5s,1736.9606751210522,1737.961957864929,1737.9533110989723,None,1738.9539097598754,1742.303725075908,1738.9539097598754,1742.303725075908,1742.2958802019712,None,1742.2958802019712,None,space,0.34979699016548693,1742.2958802019712,None,3.3447,1742.777042197995,None,,,,,,,DEC021,001,2022_Nov_12_1037,2-25_cond_decay_EYE-try,2021.2.3,120.20599136915529,
right,0.75,1.0,1,2,0,2,0,3,0,3,0,0,5,5,7,,,,,,,,,,,,,,,5s,1743.8271158400457,1744.828473513946,1744.8126582689583,None,1745.812601286918,1749.7373364749365,1745.812601286918,1749.7373364749365,1749.7373364749365,None,1749.7373364749365,None,space,0.5187797539401799,1749.7373364749365,None,3.9186,1750.3857772569172,None,,,,,,,DEC021,001,2022_Nov_12_1037,2-25_cond_decay_EYE-try,2021.2.3,120.20599136915529,
right,1.0,0.75,0,2,0,2,0,3,0,3,0,0,6,6,8,,,,,,,,,,,,,,,5s,1751.444890721934,1752.44590513804,1752.436682360014,None,1753.4285482259002,1757.2455232460052,1753.4285482259002,1757.2455232460052,1757.2455232460052,None,1757.2455232460052,None,space,0.3921002319548279,1757.2455232460052,None,3.8142,1757.7692846390419,None,,,,,,,DEC021,001,2022_Nov_12_1037,2-25_cond_decay_EYE-try,2021.2.3,120.20599136915529,
left,0.75,1.0,0,2,0,2,0,3,0,3,0,0,7,7,3,,,,,,,,,,,,,,,5s,1758.8279396288563,1759.8288739479613,1759.8126252039801,None,1760.8124967028853,1763.4285332129803,1760.8124967028853,1763.4285332129803,1763.4285332129803,None,1763.4285332129803,None,space,0.3362073169555515,1763.4285332129803,None,2.612,1763.8945502860006,None,,,,,,,DEC021,001,2022_Nov_12_1037,2-25_cond_decay_EYE-try,2021.2.3,120.20599136915529,
left,0.75,1.0,0,2,0,2,0,3,0,3,0,0,8,8,6,,,,,,,,,,,,,,,5s,1764.952909600921,1765.9536503739655,1765.9455670609605,None,1766.9453513438348,1770.0628537610173,1766.9453513438348,1770.0628537610173,1770.0628537610173,None,1770.0628537610173,None,space,0.33386784698814154,1770.0628537610173,None,3.1176,1770.5280726398341,None,,,,,,,DEC021,001,2022_Nov_12_1037,2-25_cond_decay_EYE-try,2021.2.3,120.20599136915529,
left,1.0,0.75,1,2,0,2,0,3,0,3,0,0,9,9,5,,,,,,,,,,,,,,,5s,1771.577550736023,1772.5785488288384,1772.5626710669603,None,1773.56241120887,1774.2535028120037,1773.56241120887,1774.2535028120037,1774.2535028120037,None,1774.2535028120037,None,space,0.42763991584070027,1774.2535028120037,None,0.6891,1774.8113210408483,None,,,,,,,DEC021,001,2022_Nov_12_1037,2-25_cond_decay_EYE-try,2021.2.3,120.20599136915529,
right,1.0,0.75,0,2,0,2,0,3,0,3,0,1,0,10,9,,,,,,,,,,,,,,,5s,1775.8695141810458,1776.8705909098499,1776.8623227200005,None,1777.8626036490314,1779.096198590938,1777.8626036490314,1779.096198590938,1779.096198590938,None,1779.096198590938,None,space,0.35198312089778483,1779.096198590938,None,1.2327,1779.5780097029638,None,,,,,,,DEC021,001,2022_Nov_12_1037,2-25_cond_decay_EYE-try,2021.2.3,120.20599136915529,
right,1.0,0.75,0,2,0,2,0,3,0,3,0,1,1,11,4,,,,,,,,,,,,,,,5s,1780.6359768279362,1781.6374497800134,1781.6286056200042,None,1782.6290536590386,1787.2291610590182,1782.6290536590386,1787.2291610590182,1787.2291610590182,None,1787.2291610590182,None,space,0.3194072868209332,1787.2291610590182,None,4.6009,1787.6781404069625,None,,,,,,,DEC021,001,2022_Nov_12_1037,2-25_cond_decay_EYE-try,2021.2.3,120.20599136915529,
right,1.0,0.75,0,2,0,2,0,3,0,3,0,1,2,12,8,,,,,,,,,,,,,,,5s,1788.7294650760014,1789.7293560628314,1789.7213637949899,None,1790.7213572720066,1793.8627452098299,1790.7213572720066,1793.8627452098299,1793.8627452098299,None,1793.8627452098299,None,space,0.5773461309727281,1793.8627452098299,None,3.1409,1794.5699859948363,None,,,,,,,DEC021,001,2022_Nov_12_1037,2-25_cond_decay_EYE-try,2021.2.3,120.20599136915529,
left,1.0,0.75,1,2,0,2,0,3,0,3,0,1,3,13,5,,,,,,,,,,,,,,,5s,1795.6284006289206,1796.629261890892,1796.6121554989368,None,1797.6121921229642,1801.2206077990122,1797.6121921229642,1801.2206077990122,1801.2206077990122,None,1801.2206077990122,None,space,0.4012433639727533,1801.2206077990122,None,3.6043,1801.7529630619101,None,,,,,,,DEC021,001,2022_Nov_12_1037,2-25_cond_decay_EYE-try,2021.2.3,120.20599136915529,
right,1.0,0.75,0,2,0,2,0,3,0,3,0,1,4,14,2,,,,,,,,,,,,,,,5s,1802.8112509339117,1803.812365324935,1803.7957863979973,None,1804.795837549027,1806.8879301729612,1804.795837549027,1806.8879301729612,1806.8879301729612,None,1806.8879301729612,None,space,0.36102545890025795,1806.8879301729612,None,2.0881,1807.3783462599386,None,,,,,,,DEC021,001,2022_Nov_12_1037,2-25_cond_decay_EYE-try,2021.2.3,120.20599136915529,
left,0.75,1.0,0,2,0,2,0,3,0,3,0,1,5,15,1,,,,,,,,,,,,,,,5s,1808.4367238548584,1809.438189721899,1809.4209366769064,None,1810.4211533500347,1814.3540709388908,1810.4211533500347,1814.3540709388908,1814.3540709388908,None,1814.3540709388908,None,space,0.37751127197407186,1814.3540709388908,None,3.9281,1814.8610499668866,None,,,,,,,DEC021,001,2022_Nov_12_1037,2-25_cond_decay_EYE-try,2021.2.3,120.20599136915529,
left,0.75,1.0,0,2,0,2,0,3,0,3,0,1,6,16,6,,,,,,,,,,,,,,,5s,1815.9113289359957,1816.9131290798541,1816.9047691309825,None,1817.9050699078944,1818.2878948280122,1817.9050699078944,1818.2878948280122,1818.280107673956,None,1818.280107673956,None,space,0.5001189350150526,1818.280107673956,None,0.3778,1818.9117335539777,None,,,,,,,DEC021,001,2022_Nov_12_1037,2-25_cond_decay_EYE-try,2021.2.3,120.20599136915529,
