attn_cue,left_ob,right_ob,congruent,runs.thisRepN,runs.thisTrialN,runs.thisN,runs.thisIndex,blocks.thisRepN,blocks.thisTrialN,blocks.thisN,blocks.thisIndex,trials.thisRepN,trials.thisTrialN,trials.thisN,trials.thisIndex,welcome.started,welcome.stopped,text_2.started,text_2.stopped,init_key_resp.keys,init_key_resp.rt,init_key_resp.started,init_key_resp.stopped,text_3.started,text_3.stopped,text_4.started,text_4.stopped,text_5.started,text_5.stopped,block_num,texter.started,texter.stopped,cross.started,cross.stopped,left_star.started,left_star.stopped,right_star.started,right_star.stopped,left_2.started,left_2.stopped,right_2.started,right_2.stopped,key_resp.keys,key_resp.rt,key_resp.started,key_resp.stopped,Rand Tim,text.started,text.stopped,end.started,end.stopped,text_6.started,text_6.stopped,text_7.started,text_7.stopped,participant,session,date,expName,psychopyVersion,frameRate,
,,,,,,,,,,,,,,,,12.544304684968665,None,12.544304684968665,None,space,1.456103147007525,12.544304684968665,None,,,,,,,,,,,,,,,,,,,,,,,,,,,,,,,,,001,001,2022_Mar_16_1537,2-25_cond_decay,2021.2.3,165.0077858527325,
left,0.75,1.0,0,0,0,0,0,0,0,0,0,0,0,0,3,,,,,,,,,14.02726486301981,None,14.02726486301981,None,14.02726486301981,None,10s,16.778787547023967,17.780101416865364,17.76828501885757,None,18.768432539887726,24.477196411928162,18.768432539887726,24.477196411928162,24.477196411928162,None,24.477196411928162,None,space,0.5151329210493714,24.477196411928162,None,5.7094,25.015102077042684,None,,,,,,,001,001,2022_Mar_16_1537,2-25_cond_decay,2021.2.3,165.0077858527325,
left,0.75,1.0,0,0,0,0,0,0,0,0,0,0,1,1,2,,,,,,,,,,,,,,,10s,26.004903946071863,27.00390791706741,26.998149623861536,None,27.998319645877928,35.25236586597748,27.998319645877928,35.25236586597748,35.25236586597748,None,35.25236586597748,None,space,0.3960353971924633,35.25236586597748,None,7.2548,35.66508161392994,None,,,,,,,001,001,2022_Mar_16_1537,2-25_cond_decay,2021.2.3,165.0077858527325,
left,0.75,1.0,0,0,0,0,0,0,0,0,0,0,2,2,4,,,,,,,,,,,,,,,10s,36.665174399036914,37.66496905987151,37.65915222093463,None,38.658485737862065,39.84627491189167,38.658485737862065,39.84627491189167,39.84627491189167,None,39.84627491189167,None,space,0.41012459993362427,39.84627491189167,None,1.1865,40.26966660795733,None,,,,,,,001,001,2022_Mar_16_1537,2-25_cond_decay,2021.2.3,165.0077858527325,
left,1.0,0.75,1,0,0,0,0,0,0,0,0,0,3,3,5,,,,,,,,,,,,,,,10s,41.27122065704316,42.27095644804649,42.26526123494841,None,43.26465461193584,49.524210925912485,43.26465461193584,49.524210925912485,49.51765556191094,None,49.51765556191094,None,space,0.34676281083375216,49.51765556191094,None,6.2516,49.875138900009915,None,,,,,,,001,001,2022_Mar_16_1537,2-25_cond_decay,2021.2.3,165.0077858527325,
right,1.0,0.75,0,0,0,0,0,0,0,0,0,0,4,4,8,,,,,,,,,,,,,,,10s,50.88719964586198,51.88873401097953,51.87673036986962,None,52.87668706593104,53.203663408057764,52.87668706593104,53.203663408057764,53.203663408057764,None,53.203663408057764,None,space,0.40473884087987244,53.203663408057764,None,0.3256,53.62043981207535,None,,,,,,,001,001,2022_Mar_16_1537,2-25_cond_decay,2021.2.3,165.0077858527325,
right,1.0,0.75,0,0,0,0,0,0,0,0,0,0,5,5,9,,,,,,,,,,,,,,,10s,54.62186304992065,55.621851136907935,55.61612119199708,None,56.61575354193337,57.742427333956584,56.61575354193337,57.742427333956584,57.73582828999497,None,57.73582828999497,None,space,0.3845653389580548,57.73582828999497,None,1.1198,58.13759140786715,None,,,,,,,001,001,2022_Mar_16_1537,2-25_cond_decay,2021.2.3,165.0077858527325,
right,1.0,0.75,0,0,0,0,0,0,0,0,0,0,6,6,7,,,,,,,,,,,,,,,10s,59.1369004980661,60.13689991901629,60.13113315589726,None,61.130665987031534,67.09452543198131,61.130665987031534,67.09452543198131,67.08791127707809,None,67.08791127707809,None,space,0.40848807781003416,67.08791127707809,None,5.9537,67.51318286499009,None,,,,,,,001,001,2022_Mar_16_1537,2-25_cond_decay,2021.2.3,165.0077858527325,
left,0.75,1.0,0,0,0,0,0,0,0,0,0,0,7,7,0,,,,,,,,,,,,,,,10s,68.51713808486238,69.5185530660674,69.5128332178574,None,70.51256359997205,77.29340855800547,70.51256359997205,77.29340855800547,77.28676178702153,None,77.28676178702153,None,space,0.385635495884344,77.28676178702153,None,6.7739,77.69381832401268,None,,,,,,,001,001,2022_Mar_16_1537,2-25_cond_decay,2021.2.3,165.0077858527325,
right,1.0,0.75,0,0,0,0,0,0,0,0,0,0,8,8,6,,,,,,,,,,,,,,,10s,78.69918161607347,79.70037646498531,79.69479765091091,None,80.69451744202524,89.90627296594903,80.69451744202524,89.90627296594903,89.90627296594903,None,89.90627296594903,None,space,0.3261350770480931,89.90627296594903,None,9.2106,90.24449186190031,None,,,,,,,001,001,2022_Mar_16_1537,2-25_cond_decay,2021.2.3,165.0077858527325,
left,0.75,1.0,0,0,0,0,0,0,0,0,0,0,9,9,1,,,,,,,,,,,,,,,10s,91.25018222793005,92.2523716990836,92.24546175287105,None,93.24614572501741,95.37268530786969,93.24614572501741,95.37268530786969,95.36732879304327,None,95.36732879304327,None,space,0.37708534696139395,95.36732879304327,None,2.1219,95.76123959990218,None,,,,,,,001,001,2022_Mar_16_1537,2-25_cond_decay,2021.2.3,165.0077858527325,
left,0.75,1.0,0,0,0,0,0,0,0,0,0,1,0,10,4,,,,,,,,,,,,,,,10s,96.76068753097206,97.76116766803898,97.75447995099239,None,98.75442720996216,105.81566651607864,98.75442720996216,105.81566651607864,105.81566651607864,None,105.81566651607864,None,space,0.3686742300633341,105.81566651607864,None,7.0613,106.19584322092123,None,,,,,,,001,001,2022_Mar_16_1537,2-25_cond_decay,2021.2.3,165.0077858527325,
right,1.0,0.75,0,0,0,0,0,0,0,0,0,1,1,11,9,,,,,,,,,,,,,,,10s,107.20145023590885,108.20292258495465,108.19721186789684,None,109.19687022804283,110.77918018703349,109.19687022804283,110.77918018703349,110.77918018703349,None,110.77918018703349,None,space,0.437224212102592,110.77918018703349,None,1.5816,111.233425532002,None,,,,,,,001,001,2022_Mar_16_1537,2-25_cond_decay,2021.2.3,165.0077858527325,
left,0.75,1.0,0,0,0,0,0,0,0,0,0,1,2,12,0,,,,,,,,,,,,,,,10s,112.23822321090847,113.23915888089687,113.23343761800788,None,114.23331875889562,117.73498682794161,114.23331875889562,117.73498682794161,117.72855003387667,None,117.72855003387667,None,space,0.3597848010249436,117.72855003387667,None,3.4923,118.11035839095712,None,,,,,,,001,001,2022_Mar_16_1537,2-25_cond_decay,2021.2.3,165.0077858527325,
right,0.75,1.0,1,0,0,0,0,0,0,0,0,1,3,13,3,,,,,,,,,,,,,,,10s,119.11749421898276,120.11767059192061,120.11191639304161,None,121.11191902193241,122.35414679488167,121.11191902193241,122.35414679488167,122.35414679488167,None,122.35414679488167,None,space,0.38218507799319923,122.35414679488167,None,1.2433,122.75489503890276,None,,,,,,,001,001,2022_Mar_16_1537,2-25_cond_decay,2021.2.3,165.0077858527325,
right,1.0,0.75,0,0,0,0,0,0,0,0,0,1,4,14,7,,,,,,,,,,,,,,,10s,123.75392875587568,124.75434180302545,124.74877860606648,None,125.74880232685246,126.37844965304248,125.74880232685246,126.37844965304248,126.37195730907843,None,126.37195730907843,None,space,0.332503599813208,126.37195730907843,None,0.6188,126.71643814095296,None,,,,,,,001,001,2022_Mar_16_1537,2-25_cond_decay,2021.2.3,165.0077858527325,
left,0.75,1.0,0,0,0,0,0,0,0,0,0,1,5,15,2,,,,,,,,,,,,,,,10s,127.72278928291053,128.72384775802493,128.71822838997468,None,129.71843145997263,130.48777751694433,129.71843145997263,130.48777751694433,130.48090259102173,None,130.48090259102173,None,space,0.3755147971678525,130.48090259102173,None,0.7603,130.86812616302632,None,,,,,,,001,001,2022_Mar_16_1537,2-25_cond_decay,2021.2.3,165.0077858527325,
left,0.75,1.0,0,0,0,0,0,0,0,0,0,1,6,16,1,,,,,,,,,,,,,,,10s,131.86927583697252,132.8696192658972,132.8639336079359,None,133.8636735449545,137.29866472887807,133.8636735449545,137.29866472887807,137.29213075293228,None,137.29213075293228,None,space,0.3882986200042069,137.29213075293228,None,3.428,137.69261847389862,None,,,,,,,001,001,2022_Mar_16_1537,2-25_cond_decay,2021.2.3,165.0077858527325,
right,1.0,0.75,0,0,0,0,0,0,0,0,0,1,7,17,8,,,,,,,,,,,,,,,10s,138.698719589971,139.69940534001216,139.69346471689641,None,140.6935032780748,146.42719956487417,140.6935032780748,146.42719956487417,146.42719956487417,None,146.42719956487417,None,space,0.3492210360709578,146.42719956487417,None,5.733,146.7890560340602,None,,,,,,,001,001,2022_Mar_16_1537,2-25_cond_decay,2021.2.3,165.0077858527325,
right,1.0,0.75,0,0,0,0,0,0,0,0,0,1,8,18,6,,,,,,,,,,,,,,,10s,147.78996876603924,148.79077131208032,148.78390711988322,None,149.78409834299237,154.92969581088983,149.78409834299237,154.92969581088983,154.92969581088983,None,154.92969581088983,None,space,0.47071664594113827,154.92969581088983,None,5.1452,155.41373485303484,None,,,,,,,001,001,2022_Mar_16_1537,2-25_cond_decay,2021.2.3,165.0077858527325,
left,1.0,0.75,1,0,0,0,0,0,0,0,0,1,9,19,5,,,,,,,,,,,,,,,10s,156.41911644907668,157.42047090502456,157.41479334095493,None,158.41442504990846,166.85678645502776,158.41442504990846,166.85678645502776,166.85678645502776,None,166.85678645502776,None,space,0.3836259008385241,166.85678645502776,None,8.4423,167.26199801196344,None,,,,,,,001,001,2022_Mar_16_1537,2-25_cond_decay,2021.2.3,165.0077858527325,
,,,,0,0,0,0,0,0,0,0,,,,,,,,,,,,,,,,,,,,,,,,,,,,,,,,,,,,,,,,,,,,,001,001,2022_Mar_16_1537,2-25_cond_decay,2021.2.3,165.0077858527325,
right,1.0,0.75,0,0,0,0,0,1,0,1,0,0,0,0,6,,,,,,,,,168.27428456302732,None,168.27428456302732,None,168.27428456302732,None,5s,170.15247398498468,171.15404775296338,171.14732137485407,None,172.14206730294973,174.47509058588184,172.14206730294973,174.47509058588184,174.47509058588184,None,174.47509058588184,None,space,0.30925096198916435,174.47509058588184,None,2.3286,174.8068515008781,None,,,,,,,001,001,2022_Mar_16_1537,2-25_cond_decay,2021.2.3,165.0077858527325,
right,1.0,0.75,0,0,0,0,0,1,0,1,0,0,1,1,0,,,,,,,,,,,,,,,5s,175.80847385688685,176.80788905289955,176.80217575095594,None,177.8023556030821,180.34101276402362,177.8023556030821,180.34101276402362,180.33445733389817,None,180.33445733389817,None,space,0.2818866230081767,180.33445733389817,None,2.5279,180.63238420989364,None,,,,,,,001,001,2022_Mar_16_1537,2-25_cond_decay,2021.2.3,165.0077858527325,
right,1.0,0.75,0,0,0,0,0,1,0,1,0,0,2,2,9,,,,,,,,,,,,,,,5s,181.6320413739886,182.6326320359949,182.62586218095385,None,183.62593129696324,184.57795583992265,183.62593129696324,184.57795583992265,184.57795583992265,None,184.57795583992265,None,space,0.42246356909163296,184.57795583992265,None,0.9522,185.01259691803716,None,,,,,,,001,001,2022_Mar_16_1537,2-25_cond_decay,2021.2.3,165.0077858527325,
left,0.75,1.0,0,0,0,0,0,1,0,1,0,0,3,3,5,,,,,,,,,,,,,,,5s,186.0185407840181,187.01987277786247,187.01396690006368,None,188.01445361506194,189.15251099900343,188.01445361506194,189.15251099900343,189.1459804449696,None,189.1459804449696,None,space,0.3264446551911533,189.1459804449696,None,1.1292,189.48609529295936,None,,,,,,,001,001,2022_Mar_16_1537,2-25_cond_decay,2021.2.3,165.0077858527325,
right,1.0,0.75,0,0,0,0,0,1,0,1,0,0,4,4,7,,,,,,,,,,,,,,,5s,190.49146504187956,191.4929131749086,191.48729465389624,None,192.48723106086254,197.2311608849559,192.48723106086254,197.2311608849559,197.2246318059042,None,197.2246318059042,None,space,0.3677948780823499,197.2246318059042,None,4.7349,197.6131147830747,None,,,,,,,001,001,2022_Mar_16_1537,2-25_cond_decay,2021.2.3,165.0077858527325,
left,0.75,1.0,0,0,0,0,0,1,0,1,0,0,5,5,2,,,,,,,,,,,,,,,5s,198.61921187792905,199.6203947190661,199.6136487920303,None,200.61357183288783,202.29876206093468,200.61357183288783,202.29876206093468,202.29876206093468,None,202.29876206093468,None,space,0.3656534480396658,202.29876206093468,None,1.685,202.68088836688548,None,,,,,,,001,001,2022_Mar_16_1537,2-25_cond_decay,2021.2.3,165.0077858527325,
right,0.75,1.0,1,0,0,0,0,1,0,1,0,0,6,6,4,,,,,,,,,,,,,,,5s,203.6858441499062,204.68630990292877,204.68059804104269,None,205.6805375739932,208.5169413050171,205.6805375739932,208.5169413050171,208.5169413050171,None,208.5169413050171,None,space,0.4194700438529253,208.5169413050171,None,2.8363,208.95378786092624,None,,,,,,,001,001,2022_Mar_16_1537,2-25_cond_decay,2021.2.3,165.0077858527325,
right,1.0,0.75,0,0,0,0,0,1,0,1,0,0,7,7,8,,,,,,,,,,,,,,,5s,209.9590242980048,210.95905801095068,210.95327608590014,None,211.95300678000785,214.60662682098337,211.95300678000785,214.60662682098337,214.60004784795456,None,214.60004784795456,None,space,0.40037783700972795,214.60004784795456,None,2.6449,215.0126667888835,None,,,,,,,001,001,2022_Mar_16_1537,2-25_cond_decay,2021.2.3,165.0077858527325,
left,1.0,0.75,1,0,0,0,0,1,0,1,0,0,8,8,1,,,,,,,,,,,,,,,5s,216.0185398189351,217.0192831349559,217.01337260589935,None,218.01331084687263,218.5161633968819,218.01331084687263,218.5161633968819,218.5161633968819,None,218.5161633968819,None,space,0.43625922896899283,218.5161633968819,None,0.5039,218.96339060389437,None,,,,,,,001,001,2022_Mar_16_1537,2-25_cond_decay,2021.2.3,165.0077858527325,
left,0.75,1.0,0,0,0,0,0,1,0,1,0,0,9,9,3,,,,,,,,,,,,,,,5s,219.96512518892996,220.96508408896625,220.95943079493009,None,221.95902844890952,226.7350475229323,221.95902844890952,226.7350475229323,226.7350475229323,None,226.7350475229323,None,space,0.36137212510220706,226.7350475229323,None,4.7762,227.10989061300643,None,,,,,,,001,001,2022_Mar_16_1537,2-25_cond_decay,2021.2.3,165.0077858527325,
right,1.0,0.75,0,0,0,0,0,1,0,1,0,1,0,10,0,,,,,,,,,,,,,,,5s,228.11493667797185,229.11661745002493,229.11089692800306,None,230.11000836198218,232.83640767796896,230.11000836198218,232.83640767796896,232.8299360089004,None,232.8299360089004,None,space,0.29041067184880376,232.8299360089004,None,2.7185,233.13371573598124,None,,,,,,,001,001,2022_Mar_16_1537,2-25_cond_decay,2021.2.3,165.0077858527325,
right,1.0,0.75,0,0,0,0,0,1,0,1,0,1,1,11,9,,,,,,,,,,,,,,,5s,234.13495358498767,235.13430034997873,235.12852078396827,None,236.12818838097155,239.849327767035,236.12818838097155,239.849327767035,239.842852427857,None,239.842852427857,None,space,0.38950842898339033,239.842852427857,None,3.7129,240.25395292392932,None,,,,,,,001,001,2022_Mar_16_1537,2-25_cond_decay,2021.2.3,165.0077858527325,
right,1.0,0.75,0,0,0,0,0,1,0,1,0,1,2,12,7,,,,,,,,,,,,,,,5s,241.2562502878718,242.25538413086906,242.24963739491068,None,243.24932365398854,246.04346001101658,243.24932365398854,246.04346001101658,246.04346001101658,None,246.04346001101658,None,space,0.3488970978651196,246.04346001101658,None,2.7934,246.4055437669158,None,,,,,,,001,001,2022_Mar_16_1537,2-25_cond_decay,2021.2.3,165.0077858527325,
left,1.0,0.75,1,0,0,0,0,1,0,1,0,1,3,13,1,,,,,,,,,,,,,,,5s,247.41185855399817,248.41356717096642,248.4067882609088,None,249.40739259985276,251.44309460790828,249.40739259985276,251.44309460790828,251.4364587829914,None,251.4364587829914,None,space,0.37995577207766473,251.4364587829914,None,2.0257,251.82993450202048,None,,,,,,,001,001,2022_Mar_16_1537,2-25_cond_decay,2021.2.3,165.0077858527325,
left,0.75,1.0,0,0,0,0,0,1,0,1,0,1,4,14,5,,,,,,,,,,,,,,,5s,252.83151668100618,253.83165101893246,253.82485546497628,None,254.8254577680491,259.76309779286385,254.8254577680491,259.76309779286385,259.7567404739093,None,259.7567404739093,None,space,0.4276812239550054,259.7567404739093,None,4.9298,260.20522118289955,None,,,,,,,001,001,2022_Mar_16_1537,2-25_cond_decay,2021.2.3,165.0077858527325,
left,0.75,1.0,0,0,0,0,0,1,0,1,0,1,5,15,3,,,,,,,,,,,,,,,5s,261.2070007759612,262.20649928203784,262.20078644296154,None,263.20039581903256,265.82997618685476,263.20039581903256,265.82997618685476,265.82337097497657,None,265.82337097497657,None,space,0.32101606600917876,265.82337097497657,None,2.6217,266.1574941340368,None,,,,,,,001,001,2022_Mar_16_1537,2-25_cond_decay,2021.2.3,165.0077858527325,
left,0.75,1.0,0,0,0,0,0,1,0,1,0,1,6,16,6,,,,,,,,,,,,,,,5s,267.15823905402794,268.15804536803626,268.15235294401646,None,269.1518820039928,270.1456792259123,269.1518820039928,270.1456792259123,270.1456792259123,None,270.1456792259123,None,space,0.4306794658768922,270.1456792259123,None,0.9932,270.5868893968873,None,,,,,,,001,001,2022_Mar_16_1537,2-25_cond_decay,2021.2.3,165.0077858527325,
left,0.75,1.0,0,0,0,0,0,1,0,1,0,1,7,17,2,,,,,,,,,,,,,,,5s,271.58818993507884,272.58858685404994,272.58278246200643,None,273.582642407855,274.68982823193073,273.582642407855,274.68982823193073,274.6844160880428,None,274.6844160880428,None,space,0.32400555489584804,274.6844160880428,None,1.101,275.0251338989474,None,,,,,,,001,001,2022_Mar_16_1537,2-25_cond_decay,2021.2.3,165.0077858527325,
right,1.0,0.75,0,0,0,0,0,1,0,1,0,1,8,18,8,,,,,,,,,,,,,,,5s,276.0301138390787,277.030754897045,277.0248601308558,None,278.02523548691534,280.7640511968639,278.02523548691534,280.7640511968639,280.7640511968639,None,280.7640511968639,None,space,0.388381483964622,280.7640511968639,None,2.739,281.1708048910368,None,,,,,,,001,001,2022_Mar_16_1537,2-25_cond_decay,2021.2.3,165.0077858527325,
right,0.75,1.0,1,0,0,0,0,1,0,1,0,1,9,19,4,,,,,,,,,,,,,,,5s,282.17029237607494,283.16997849196196,283.16426146705635,None,284.1637288159691,289.1153725660406,284.1637288159691,289.1153725660406,289.1153725660406,None,289.1153725660406,None,space,0.34904931695200503,289.1153725660406,None,4.953,289.4779377700761,None,,,,,,,001,001,2022_Mar_16_1537,2-25_cond_decay,2021.2.3,165.0077858527325,
,,,,0,0,0,0,1,0,1,0,,,,,,,,,,,,,,,,,,,,,,,,,,,,,,,,,,,,,,,,,,,,,001,001,2022_Mar_16_1537,2-25_cond_decay,2021.2.3,165.0077858527325,
left,0.75,1.0,0,0,0,0,0,2,0,2,0,0,0,0,3,,,,,,,,,290.4902298578527,None,290.4902298578527,None,290.4902298578527,None,3s,291.73862003395334,292.74008108791895,292.7281366549432,None,293.72733760694973,294.0915488358587,293.72733760694973,294.0915488358587,294.0915488358587,None,294.0915488358587,None,space,0.3248898962046951,294.0915488358587,None,0.3599,294.42994910501875,None,,,,,,,001,001,2022_Mar_16_1537,2-25_cond_decay,2021.2.3,165.0077858527325,
left,0.75,1.0,0,0,0,0,0,2,0,2,0,0,1,1,0,,,,,,,,,,,,,,,3s,295.43063658988103,296.4309269678779,296.42514032288454,None,297.4241640570108,297.69022168195806,297.4241640570108,297.69022168195806,297.6836598638911,None,297.6836598638911,None,space,0.3007715221028775,297.6836598638911,None,0.2573,298.005674605025,None,,,,,,,001,001,2022_Mar_16_1537,2-25_cond_decay,2021.2.3,165.0077858527325,
right,0.75,1.0,1,0,0,0,0,2,0,2,0,0,2,2,1,,,,,,,,,,,,,,,3s,299.01162864197977,300.0124356090091,300.0067652540747,None,301.0061171478592,303.0247173218522,301.0061171478592,303.0247173218522,303.0247173218522,None,303.0247173218522,None,space,0.32765680900774896,303.0247173218522,None,2.0177,303.37503148196265,None,,,,,,,001,001,2022_Mar_16_1537,2-25_cond_decay,2021.2.3,165.0077858527325,
right,1.0,0.75,0,0,0,0,0,2,0,2,0,0,3,3,8,,,,,,,,,,,,,,,3s,304.37596540688537,305.37567297392525,305.36999312089756,None,306.37003588001244,308.64264003699645,306.37003588001244,308.64264003699645,308.64264003699645,None,308.64264003699645,None,space,0.285725039197132,308.64264003699645,None,2.2714,308.9460766338743,None,,,,,,,001,001,2022_Mar_16_1537,2-25_cond_decay,2021.2.3,165.0077858527325,
left,0.75,1.0,0,0,0,0,0,2,0,2,0,0,4,4,4,,,,,,,,,,,,,,,3s,309.9501635208726,310.9513326869346,310.9457293690648,None,311.9453366610687,313.6787278179545,311.9453366610687,313.6787278179545,313.6787278179545,None,313.6787278179545,None,space,0.27366071403957903,313.6787278179545,None,1.7334,313.97403820906766,None,,,,,,,001,001,2022_Mar_16_1537,2-25_cond_decay,2021.2.3,165.0077858527325,
right,1.0,0.75,0,0,0,0,0,2,0,2,0,0,5,5,9,,,,,,,,,,,,,,,3s,314.98091665492393,315.9818237060681,315.9762026600074,None,316.975370191969,318.1143108638935,316.975370191969,318.1143108638935,318.1077406690456,None,318.1077406690456,None,space,0.2846994809806347,318.1077406690456,None,1.1293,318.40456738485955,None,,,,,,,001,001,2022_Mar_16_1537,2-25_cond_decay,2021.2.3,165.0077858527325,
right,1.0,0.75,0,0,0,0,0,2,0,2,0,0,6,6,6,,,,,,,,,,,,,,,3s,319.4064949399326,320.40642326907255,320.39955754601397,None,321.40004122885875,324.1015988490544,321.40004122885875,324.1015988490544,324.0952711789869,None,324.0952711789869,None,space,0.32909150910563767,324.0952711789869,None,2.6936,324.4355882159434,None,,,,,,,001,001,2022_Mar_16_1537,2-25_cond_decay,2021.2.3,165.0077858527325,
left,1.0,0.75,1,0,0,0,0,2,0,2,0,0,7,7,2,,,,,,,,,,,,,,,3s,325.44079496106133,326.44197256397456,326.4362193760462,None,327.4357846688945,328.4957740418613,327.4357846688945,328.4957740418613,328.48906600894406,None,328.48906600894406,None,space,0.7513769271317869,328.48906600894406,None,1.0515,329.2536397089716,None,,,,,,,001,001,2022_Mar_16_1537,2-25_cond_decay,2021.2.3,165.0077858527325,
left,0.75,1.0,0,0,0,0,0,2,0,2,0,0,8,8,5,,,,,,,,,,,,,,,3s,330.25465502985753,331.25422322400846,331.2486298349686,None,332.2479440108873,332.7569627489429,332.2479440108873,332.7569627489429,332.7569627489429,333.7574990100693,332.7569627489429,333.7574990100693,None,,332.7569627489429,333.7574990100693,0.5107,333.776100337971,None,,,,,,,001,001,2022_Mar_16_1537,2-25_cond_decay,2021.2.3,165.0077858527325,
right,1.0,0.75,0,0,0,0,0,2,0,2,0,0,9,9,7,,,,,,,,,,,,,,,3s,334.7743601889815,335.7751148608513,335.7692943268921,None,336.769865993876,338.27252610703,336.769865993876,338.27252610703,338.27252610703,None,338.27252610703,None,space,0.32790173310786486,338.27252610703,None,1.5026,338.624368095072,None,,,,,,,001,001,2022_Mar_16_1537,2-25_cond_decay,2021.2.3,165.0077858527325,
left,0.75,1.0,0,0,0,0,0,2,0,2,0,1,0,10,5,,,,,,,,,,,,,,,3s,339.6283632358536,340.6295535489917,340.61758550000377,None,341.6174123568926,342.0779287109617,341.6174123568926,342.0779287109617,342.0779287109617,None,342.0779287109617,None,space,0.2825077180750668,342.0779287109617,None,0.4599,342.37369481590576,None,,,,,,,001,001,2022_Mar_16_1537,2-25_cond_decay,2021.2.3,165.0077858527325,
right,0.75,1.0,1,0,0,0,0,2,0,2,0,1,1,11,1,,,,,,,,,,,,,,,3s,343.38032115390524,344.38159191492014,344.3748981389217,None,345.375856858911,348.3210575450212,345.375856858911,348.3210575450212,348.3210575450212,None,348.3210575450212,None,space,0.36738587310537696,348.3210575450212,None,2.9447,348.7015890190378,None,,,,,,,001,001,2022_Mar_16_1537,2-25_cond_decay,2021.2.3,165.0077858527325,
right,1.0,0.75,0,0,0,0,0,2,0,2,0,1,2,12,6,,,,,,,,,,,,,,,3s,349.7024848619476,350.7021471778862,350.69641644204967,None,351.69683935889043,353.21170660387725,351.69683935889043,353.21170660387725,353.21170660387725,None,353.21170660387725,None,space,0.33271481888368726,353.21170660387725,None,1.5137,353.55642702803016,None,,,,,,,001,001,2022_Mar_16_1537,2-25_cond_decay,2021.2.3,165.0077858527325,
right,1.0,0.75,0,0,0,0,0,2,0,2,0,1,3,13,8,,,,,,,,,,,,,,,3s,354.5570490420796,355.55656660697423,355.550734649878,None,356.5509558869526,358.8179569018539,356.5509558869526,358.8179569018539,358.8179569018539,None,358.8179569018539,None,space,0.29448563419282436,358.8179569018539,None,2.2662,359.12581305392087,None,,,,,,,001,001,2022_Mar_16_1537,2-25_cond_decay,2021.2.3,165.0077858527325,
left,0.75,1.0,0,0,0,0,0,2,0,2,0,1,4,14,0,,,,,,,,,,,,,,,3s,360.1318545038812,361.132795332931,361.1270462980028,None,362.12659077206627,364.26484636985697,362.12659077206627,364.26484636985697,364.25824204599485,None,364.25824204599485,None,space,0.32619619206525385,364.25824204599485,None,2.1319,364.5978099529166,None,,,,,,,001,001,2022_Mar_16_1537,2-25_cond_decay,2021.2.3,165.0077858527325,
right,1.0,0.75,0,0,0,0,0,2,0,2,0,1,5,15,7,,,,,,,,,,,,,,,3s,365.60390429291874,366.6050408850424,366.5993414989207,None,367.5995702580549,370.41707945405506,367.5995702580549,370.41707945405506,370.41707945405506,None,370.41707945405506,None,space,0.3353492128662765,370.41707945405506,None,2.818,370.77325399406254,None,,,,,,,001,001,2022_Mar_16_1537,2-25_cond_decay,2021.2.3,165.0077858527325,
left,0.75,1.0,0,0,0,0,0,2,0,2,0,1,6,16,4,,,,,,,,,,,,,,,3s,371.7802673629485,372.7814539540559,372.774668256985,None,373.7745161440689,376.3073382130824,373.7745161440689,376.3073382130824,376.30055880593136,None,376.30055880593136,None,space,0.3238267640117556,376.30055880593136,None,2.5262,376.6416957450565,None,,,,,,,001,001,2022_Mar_16_1537,2-25_cond_decay,2021.2.3,165.0077858527325,
left,0.75,1.0,0,0,0,0,0,2,0,2,0,1,7,17,3,,,,,,,,,,,,,,,3s,377.64152883994393,378.6415989839006,378.63579527894035,None,379.63497756491415,381.28424627007917,379.63497756491415,381.28424627007917,381.28424627007917,None,381.28424627007917,None,space,0.396190072176978,381.28424627007917,None,1.6467,381.7012177729048,None,,,,,,,001,001,2022_Mar_16_1537,2-25_cond_decay,2021.2.3,165.0077858527325,
right,1.0,0.75,0,0,0,0,0,2,0,2,0,1,8,18,9,,,,,,,,,,,,,,,3s,382.70692925690673,383.7084568750579,383.7016297010705,None,384.7017908229027,384.9445460338611,384.7017908229027,384.9445460338611,384.9445460338611,None,384.9445460338611,None,space,0.43990485602989793,384.9445460338611,None,0.2401,385.3975637110416,None,,,,,,,001,001,2022_Mar_16_1537,2-25_cond_decay,2021.2.3,165.0077858527325,
left,1.0,0.75,1,0,0,0,0,2,0,2,0,1,9,19,2,,,,,,,,,,,,,,,3s,386.4039651940111,387.4052640500013,387.39953963598236,None,388.39852801989764,390.6893605289515,388.39852801989764,390.6893605289515,390.6893605289515,None,390.6893605289515,None,space,0.335083523998037,390.6893605289515,None,2.2903,391.0416174540296,None,,,,,,,001,001,2022_Mar_16_1537,2-25_cond_decay,2021.2.3,165.0077858527325,
,,,,0,0,0,0,2,0,2,0,,,,,,,,,,,,,,,,,,,,,,,,,,,,,,,,,,,,,,,,,,,,,001,001,2022_Mar_16_1537,2-25_cond_decay,2021.2.3,165.0077858527325,
left,0.75,1.0,0,0,0,0,0,3,0,3,0,0,0,0,2,,,,,,,,,392.04699158505537,None,392.04699158505537,None,392.04699158505537,None,1s,393.6957207620144,394.6956214988604,394.68394794594496,None,395.6835487280041,396.20524209504947,395.6835487280041,396.20524209504947,396.20524209504947,None,396.20524209504947,None,space,0.2831889418885112,396.20524209504947,None,0.5184,396.50040731485933,None,,,,,,,001,001,2022_Mar_16_1537,2-25_cond_decay,2021.2.3,165.0077858527325,
right,1.0,0.75,0,0,0,0,0,3,0,3,0,0,1,1,9,,,,,,,,,,,,,,,1s,397.5069679140579,398.5075813860167,398.50185291306116,None,399.501646382967,399.8715525660664,399.501646382967,399.8715525660664,399.8715525660664,None,399.8715525660664,None,space,0.2808830800931901,399.8715525660664,None,0.3684,400.1730766049586,None,,,,,,,001,001,2022_Mar_16_1537,2-25_cond_decay,2021.2.3,165.0077858527325,
left,0.75,1.0,0,0,0,0,0,3,0,3,0,0,2,2,5,,,,,,,,,,,,,,,1s,401.1789420489222,402.1805667229928,402.174854791956,None,403.1742058589589,403.640144353034,403.1742058589589,403.640144353034,403.63362851692364,None,403.63362851692364,None,space,0.24681772594340146,403.63362851692364,None,0.4586,403.89493436785415,None,,,,,,,001,001,2022_Mar_16_1537,2-25_cond_decay,2021.2.3,165.0077858527325,
left,1.0,0.75,1,0,0,0,0,3,0,3,0,0,3,3,6,,,,,,,,,,,,,,,1s,404.8959165979177,405.8952343589626,405.88947213208303,None,406.8898123570252,407.5256651120726,406.8898123570252,407.5256651120726,407.52033187891357,None,407.52033187891357,None,space,0.2480941500980407,407.52033187891357,None,0.634,407.77968482906,None,,,,,,,001,001,2022_Mar_16_1537,2-25_cond_decay,2021.2.3,165.0077858527325,
right,0.75,1.0,1,0,0,0,0,3,0,3,0,0,4,4,8,,,,,,,,,,,,,,,1s,408.7849642368965,409.7865390558727,409.7807837689761,None,410.78086715890095,411.3670995288994,410.78086715890095,411.3670995288994,411.36053591105156,None,411.36053591105156,None,space,0.255921000149101,411.36053591105156,None,0.5778,411.6272056980524,None,,,,,,,001,001,2022_Mar_16_1537,2-25_cond_decay,2021.2.3,165.0077858527325,
left,0.75,1.0,0,0,0,0,0,3,0,3,0,0,5,5,7,,,,,,,,,,,,,,,1s,412.63348131394014,413.6354173289146,413.62857817299664,None,414.62931054388173,415.27693337085657,414.62931054388173,415.27693337085657,415.27038512192667,None,415.27038512192667,None,space,0.24998684017919004,415.27038512192667,None,0.6384,415.5384172750637,None,,,,,,,001,001,2022_Mar_16_1537,2-25_cond_decay,2021.2.3,165.0077858527325,
right,1.0,0.75,0,0,0,0,0,3,0,3,0,0,6,6,3,,,,,,,,,,,,,,,1s,416.5422502779402,417.54406449990347,417.53831818001345,None,418.537722195033,419.2957848738879,418.537722195033,419.2957848738879,419.2957848738879,None,419.2957848738879,None,space,0.28065299801528454,419.2957848738879,None,0.7566,419.597626141971,None,,,,,,,001,001,2022_Mar_16_1537,2-25_cond_decay,2021.2.3,165.0077858527325,
left,0.75,1.0,0,0,0,0,0,3,0,3,0,0,7,7,4,,,,,,,,,,,,,,,1s,420.6031773069408,421.60409796005115,421.59207255300134,None,422.5980052598752,423.4530412799213,422.5980052598752,423.4530412799213,423.4530412799213,None,423.4530412799213,None,space,0.2833549140486866,423.4530412799213,None,0.8551,423.7485367129557,None,,,,,,,001,001,2022_Mar_16_1537,2-25_cond_decay,2021.2.3,165.0077858527325,
left,0.75,1.0,0,0,0,0,0,3,0,3,0,0,8,8,0,,,,,,,,,,,,,,,1s,424.74964330298826,425.75007488392293,425.7433855559211,None,426.7441755689215,427.1132807629183,426.7441755689215,427.1132807629183,427.10674181301147,None,427.10674181301147,None,space,0.4217146171722561,427.10674181301147,None,0.3584,427.5420582429506,None,,,,,,,001,001,2022_Mar_16_1537,2-25_cond_decay,2021.2.3,165.0077858527325,
right,1.0,0.75,0,0,0,0,0,3,0,3,0,0,9,9,1,,,,,,,,,,,,,,,1s,428.54837055085227,429.54957897402346,429.54388190386817,None,430.5436708559282,431.39817702095024,430.5436708559282,431.39817702095024,431.3926337058656,None,431.3926337058656,None,space,0.31981979799456894,431.3926337058656,None,0.8516,431.72456106496975,None,,,,,,,001,001,2022_Mar_16_1537,2-25_cond_decay,2021.2.3,165.0077858527325,
right,1.0,0.75,0,0,0,0,0,3,0,3,0,1,0,10,3,,,,,,,,,,,,,,,1s,432.72514385404065,433.72543546697125,433.7197449209634,None,434.71931613003835,435.597099151928,434.71931613003835,435.597099151928,435.59066463890485,None,435.59066463890485,None,space,0.3617975302040577,435.59066463890485,None,0.8683,435.9668982650619,None,,,,,,,001,001,2022_Mar_16_1537,2-25_cond_decay,2021.2.3,165.0077858527325,
right,1.0,0.75,0,0,0,0,0,3,0,3,0,1,1,11,2,,,,,,,,,,,,,,,1s,436.9681915228721,437.96787482406944,437.9620827708859,None,438.9615989709273,439.1682417469565,438.9615989709273,439.1682417469565,439.1682417469565,None,439.1682417469565,None,space,0.38419762905687094,439.1682417469565,None,0.2058,439.56812630500644,None,,,,,,,001,001,2022_Mar_16_1537,2-25_cond_decay,2021.2.3,165.0077858527325,
left,0.75,1.0,0,0,0,0,0,3,0,3,0,1,2,12,5,,,,,,,,,,,,,,,1s,440.5725372820161,441.5737476448994,441.5680164769292,None,442.56777267786674,443.07708562305197,442.56777267786674,443.07708562305197,443.07708562305197,None,443.07708562305197,None,space,0.3473745931405574,443.07708562305197,None,0.5084,443.4406592280138,None,,,,,,,001,001,2022_Mar_16_1537,2-25_cond_decay,2021.2.3,165.0077858527325,
left,0.75,1.0,0,0,0,0,0,3,0,3,0,1,3,13,7,,,,,,,,,,,,,,,1s,444.4410209059715,445.44073387701064,445.43400540808216,None,446.4343561390415,447.37302119703963,446.4343561390415,447.37302119703963,447.36611496889964,None,447.36611496889964,None,space,0.3223380330018699,447.36611496889964,None,0.9299,447.6994636228774,None,,,,,,,001,001,2022_Mar_16_1537,2-25_cond_decay,2021.2.3,165.0077858527325,
left,0.75,1.0,0,0,0,0,0,3,0,3,0,1,4,14,4,,,,,,,,,,,,,,,1s,448.7013481450267,449.70133151486516,449.6945980559103,None,450.6950101868715,451.36768576386385,450.6950101868715,451.36768576386385,451.36768576386385,None,451.36768576386385,None,space,0.3287262269295752,451.36768576386385,None,0.6717,451.71778505900875,None,,,,,,,001,001,2022_Mar_16_1537,2-25_cond_decay,2021.2.3,165.0077858527325,
left,0.75,1.0,0,0,0,0,0,3,0,3,0,1,5,15,0,,,,,,,,,,,,,,,1s,452.7189283990301,453.71885793004185,453.71309444401413,None,454.7131274230778,455.53741359501146,454.7131274230778,455.53741359501146,455.53741359501146,None,455.53741359501146,None,space,0.3350358970928937,455.53741359501146,None,0.8225,455.88913829787634,None,,,,,,,001,001,2022_Mar_16_1537,2-25_cond_decay,2021.2.3,165.0077858527325,
right,1.0,0.75,0,0,0,0,0,3,0,3,0,1,6,16,9,,,,,,,,,,,,,,,1s,456.89335196698084,457.8945946809836,457.888831499964,None,458.8883083059918,459.43903901590966,458.8883083059918,459.43903901590966,459.4326375790406,None,459.4326375790406,None,space,0.3438125338871032,459.4326375790406,None,0.5415,459.7922226730734,None,,,,,,,001,001,2022_Mar_16_1537,2-25_cond_decay,2021.2.3,165.0077858527325,
right,1.0,0.75,0,0,0,0,0,3,0,3,0,1,7,17,1,,,,,,,,,,,,,,,1s,460.7920035100542,461.79144262406044,461.78566973190755,None,462.7853907200042,463.2034303119872,462.7853907200042,463.2034303119872,463.1969617640134,None,463.1969617640134,None,space,0.3554890148807317,463.1969617640134,None,0.4088,463.5721435318701,None,,,,,,,001,001,2022_Mar_16_1537,2-25_cond_decay,2021.2.3,165.0077858527325,
left,1.0,0.75,1,0,0,0,0,3,0,3,0,1,8,18,6,,,,,,,,,,,,,,,1s,464.57833021506667,465.57996498490684,465.5730202628765,None,466.5731140219141,466.87693112902343,466.5731140219141,466.87693112902343,466.87693112902343,None,466.87693112902343,None,space,0.3715253530535847,466.87693112902343,None,0.3022,467.2646669528913,None,,,,,,,001,001,2022_Mar_16_1537,2-25_cond_decay,2021.2.3,165.0077858527325,
right,0.75,1.0,1,0,0,0,0,3,0,3,0,1,9,19,8,,,,,,,,,,,,,,,1s,468.2692820960656,469.27040689694695,469.26461432198994,None,470.2647241370287,471.26465824688785,470.2647241370287,471.26465824688785,471.26465824688785,None,471.26465824688785,None,space,0.31180126196704805,471.26465824688785,None,0.9998,471.59600752498955,None,,,,,,,001,001,2022_Mar_16_1537,2-25_cond_decay,2021.2.3,165.0077858527325,
,,,,0,0,0,0,3,0,3,0,,,,,,,,,,,,,,,,,,,,,,,,,,,,,,,,,,,,,,,,,,,,,001,001,2022_Mar_16_1537,2-25_cond_decay,2021.2.3,165.0077858527325,
,,,,0,0,0,0,,,,,,,,,,,,,,,,,,,,,,,,,,,,,,,,,,,,,,,,,,,472.6089018180501,None,472.6089018180501,None,472.6089018180501,None,001,001,2022_Mar_16_1537,2-25_cond_decay,2021.2.3,165.0077858527325,
right,1.0,0.75,0,1,0,1,0,0,0,0,0,0,0,0,4,,,,,,,,,477.608201490948,None,477.608201490948,None,477.608201490948,None,10s,478.3787515980657,479.379612312885,479.3676525200717,None,480.3675244010519,486.2333816399332,480.3675244010519,486.2333816399332,486.2333816399332,None,486.2333816399332,None,space,0.3590762740932405,486.2333816399332,None,5.8665,486.6142525069881,None,,,,,,,001,001,2022_Mar_16_1537,2-25_cond_decay,2021.2.3,165.0077858527325,
right,1.0,0.75,0,1,0,1,0,0,0,0,0,0,1,1,1,,,,,,,,,,,,,,,10s,487.615374998888,488.6158451200463,488.6091006898787,None,489.6090994430706,491.60968140605837,489.6090994430706,491.60968140605837,491.60968140605837,None,491.60968140605837,None,space,0.36678230110555887,491.60968140605837,None,2.0003,491.98980034003034,None,,,,,,,001,001,2022_Mar_16_1537,2-25_cond_decay,2021.2.3,165.0077858527325,
right,0.75,1.0,1,1,0,1,0,0,0,0,0,0,2,2,5,,,,,,,,,,,,,,,10s,492.99135804898106,493.9912386848591,493.9856427300256,None,494.98525363299996,497.4818287580274,494.98525363299996,497.4818287580274,497.4818287580274,None,497.4818287580274,None,space,0.3585647218860686,497.4818287580274,None,2.4973,497.8631047238596,None,,,,,,,001,001,2022_Mar_16_1537,2-25_cond_decay,2021.2.3,165.0077858527325,
right,1.0,0.75,0,1,0,1,0,0,0,0,0,0,3,3,9,,,,,,,,,,,,,,,10s,498.8642200808972,499.8644162218552,499.8575245749671,None,500.85767547786236,502.3548765878659,500.85767547786236,502.3548765878659,502.3548765878659,None,502.3548765878659,None,space,0.8375721808988601,502.3548765878659,None,1.4949,503.2097807980608,None,,,,,,,001,001,2022_Mar_16_1537,2-25_cond_decay,2021.2.3,165.0077858527325,
left,0.75,1.0,0,1,0,1,0,0,0,0,0,0,4,4,7,,,,,,,,,,,,,,,10s,504.2143172500655,505.21544917300344,505.2096740119159,None,506.2095470279455,506.63368153199553,506.2095470279455,506.63368153199553,506.63368153199553,None,506.63368153199553,None,space,0.4306985358707607,506.63368153199553,None,0.4235,507.08203467400745,None,,,,,,,001,001,2022_Mar_16_1537,2-25_cond_decay,2021.2.3,165.0077858527325,
left,0.75,1.0,0,1,0,1,0,0,0,0,0,0,5,5,2,,,,,,,,,,,,,,,10s,508.0815448600333,509.08166608400643,509.07606761995703,None,510.07624213793315,511.9065091779921,510.07624213793315,511.9065091779921,511.9065091779921,None,511.9065091779921,None,space,0.34194694994948804,511.9065091779921,None,1.8296,512.2690983559005,None,,,,,,,001,001,2022_Mar_16_1537,2-25_cond_decay,2021.2.3,165.0077858527325,
left,0.75,1.0,0,1,0,1,0,0,0,0,0,0,6,6,6,,,,,,,,,,,,,,,10s,513.2696620628703,514.2695631859824,514.2638295700308,None,515.263853718061,519.7665071389638,515.263853718061,519.7665071389638,519.7611069800332,None,519.7611069800332,None,space,0.3113453390542418,519.7611069800332,None,4.4985,520.088153467048,None,,,,,,,001,001,2022_Mar_16_1537,2-25_cond_decay,2021.2.3,165.0077858527325,
left,1.0,0.75,1,1,0,1,0,0,0,0,0,0,7,7,0,,,,,,,,,,,,,,,10s,521.0879792198539,522.0876021150034,522.0819238100667,None,523.0814082170837,532.3728027779143,523.0814082170837,532.3728027779143,532.3728027779143,None,532.3728027779143,None,space,0.3795923918951303,532.3728027779143,None,9.2889,532.7658491020557,None,,,,,,,001,001,2022_Mar_16_1537,2-25_cond_decay,2021.2.3,165.0077858527325,
left,0.75,1.0,0,1,0,1,0,0,0,0,0,0,8,8,8,,,,,,,,,,,,,,,10s,533.7668506309856,534.7663367839996,534.7605196840595,None,535.759939677082,535.9356602670159,535.759939677082,535.9356602670159,535.9356602670159,None,535.9356602670159,None,space,0.4007230820134282,535.9356602670159,None,0.1744,536.3544880070258,None,,,,,,,001,001,2022_Mar_16_1537,2-25_cond_decay,2021.2.3,165.0077858527325,
right,1.0,0.75,0,1,0,1,0,0,0,0,0,0,9,9,3,,,,,,,,,,,,,,,10s,537.359146943083,538.3605973538943,538.354794136947,None,539.3541433420032,542.875237080967,539.3541433420032,542.875237080967,542.8698954300489,None,542.8698954300489,None,space,0.450568953063339,542.8698954300489,None,3.516,543.3363407549914,None,,,,,,,001,001,2022_Mar_16_1537,2-25_cond_decay,2021.2.3,165.0077858527325,
right,1.0,0.75,0,1,0,1,0,0,0,0,0,1,0,10,9,,,,,,,,,,,,,,,10s,544.335595970042,545.3355160099454,545.3297631829046,None,546.3302416969091,548.5363628040068,546.3302416969091,548.5363628040068,548.5288943708874,None,548.5288943708874,None,space,0.3755271229892969,548.5288943708874,None,2.1965,548.9163730458822,None,,,,,,,001,001,2022_Mar_16_1537,2-25_cond_decay,2021.2.3,165.0077858527325,
left,0.75,1.0,0,1,0,1,0,0,0,0,0,1,1,11,2,,,,,,,,,,,,,,,10s,549.9226351729594,550.9236444530543,550.9179513710551,None,551.9174754060805,561.5901265798602,551.9174754060805,561.5901265798602,561.5846490820404,None,561.5846490820404,None,space,0.31982247601263225,561.5846490820404,None,9.6694,561.9165701488964,None,,,,,,,001,001,2022_Mar_16_1537,2-25_cond_decay,2021.2.3,165.0077858527325,
right,0.75,1.0,1,1,0,1,0,0,0,0,0,1,2,12,5,,,,,,,,,,,,,,,10s,562.9228157440666,563.9235428080428,563.9177862929646,None,564.9179482988548,566.0752401829232,564.9179482988548,566.0752401829232,566.0752401829232,None,566.0752401829232,None,space,0.4132233520504087,566.0752401829232,None,1.1561,566.5096979569644,None,,,,,,,001,001,2022_Mar_16_1537,2-25_cond_decay,2021.2.3,165.0077858527325,
right,1.0,0.75,0,1,0,1,0,0,0,0,0,1,3,13,3,,,,,,,,,,,,,,,10s,567.5118574029766,568.5115995348897,568.5048753069714,None,569.5052034640685,575.6808631068561,569.5052034640685,575.6808631068561,575.6742254870478,None,575.6742254870478,None,space,0.3182372129522264,575.6742254870478,None,6.1671,576.0087460658979,None,,,,,,,001,001,2022_Mar_16_1537,2-25_cond_decay,2021.2.3,165.0077858527325,
right,1.0,0.75,0,1,0,1,0,0,0,0,0,1,4,14,1,,,,,,,,,,,,,,,10s,577.0083479899913,578.0080077119637,578.0024008678738,None,579.0023143929429,586.6505304689053,579.0023143929429,586.6505304689053,586.6505304689053,None,586.6505304689053,None,space,0.35794972884468734,586.6505304689053,None,7.6476,587.0266323839314,None,,,,,,,001,001,2022_Mar_16_1537,2-25_cond_decay,2021.2.3,165.0077858527325,
left,0.75,1.0,0,1,0,1,0,0,0,0,0,1,5,15,7,,,,,,,,,,,,,,,10s,588.0306250329595,589.0321868790779,589.0262186350301,None,590.0263816299848,593.353919347981,590.0263816299848,593.353919347981,593.353919347981,None,593.353919347981,None,space,0.35051613207906485,593.353919347981,None,3.3261,593.7154834130779,None,,,,,,,001,001,2022_Mar_16_1537,2-25_cond_decay,2021.2.3,165.0077858527325,
left,1.0,0.75,1,1,0,1,0,0,0,0,0,1,6,16,0,,,,,,,,,,,,,,,10s,594.7168761559296,595.7168528379407,595.7112645080779,None,596.7109266428743,599.4135686010122,596.7109266428743,599.4135686010122,599.4070443669334,None,599.4070443669334,None,space,0.4174807141534984,599.4070443669334,None,2.6921,599.8367946748622,None,,,,,,,001,001,2022_Mar_16_1537,2-25_cond_decay,2021.2.3,165.0077858527325,
left,0.75,1.0,0,1,0,1,0,0,0,0,0,1,7,17,6,,,,,,,,,,,,,,,10s,600.8379171348643,601.8380209249444,601.8324202110525,None,602.8321681129746,602.9955790450331,602.8321681129746,602.9955790450331,602.9889970910735,None,602.9889970910735,None,space,0.44341067504137754,602.9889970910735,None,0.1541,603.4505730019882,None,,,,,,,001,001,2022_Mar_16_1537,2-25_cond_decay,2021.2.3,165.0077858527325,
left,0.75,1.0,0,1,0,1,0,0,0,0,0,1,8,18,8,,,,,,,,,,,,,,,10s,604.4506299579516,605.4499047310092,605.4442982219625,None,606.4438384650275,615.1595646750648,606.4438384650275,615.1595646750648,615.1595646750648,None,615.1595646750648,None,space,0.3369043378625065,615.1595646750648,None,8.7148,615.5095887440257,None,,,,,,,001,001,2022_Mar_16_1537,2-25_cond_decay,2021.2.3,165.0077858527325,
right,1.0,0.75,0,1,0,1,0,0,0,0,0,1,9,19,4,,,,,,,,,,,,,,,10s,616.5152609229553,617.5171395239886,617.5103033620398,None,618.5102011540439,619.922654182883,618.5102011540439,619.922654182883,619.922654182883,None,619.922654182883,None,space,0.4698346711229533,619.922654182883,None,1.4095,620.4067470398732,None,,,,,,,001,001,2022_Mar_16_1537,2-25_cond_decay,2021.2.3,165.0077858527325,
,,,,1,0,1,0,0,0,0,0,,,,,,,,,,,,,,,,,,,,,,,,,,,,,,,,,,,,,,,,,,,,,001,001,2022_Mar_16_1537,2-25_cond_decay,2021.2.3,165.0077858527325,
left,0.75,1.0,0,1,0,1,0,1,0,1,0,0,0,0,0,,,,,,,,,621.4138432010077,None,621.4138432010077,None,621.4138432010077,None,5s,622.0921801889781,623.0926458619069,623.0858800020069,None,624.0864986500237,625.6245338150766,624.0864986500237,625.6245338150766,625.6179012949578,None,625.6179012949578,None,space,0.3665660680271685,625.6179012949578,None,1.5297,626.0059719700366,None,,,,,,,001,001,2022_Mar_16_1537,2-25_cond_decay,2021.2.3,165.0077858527325,
left,0.75,1.0,0,1,0,1,0,1,0,1,0,0,1,1,6,,,,,,,,,,,,,,,5s,627.0072274429258,628.0071445580106,628.0013329749927,None,629.0009246009868,631.5820609228685,629.0009246009868,631.5820609228685,631.575379364891,None,631.575379364891,None,space,0.41705416492186487,631.575379364891,None,2.5723,632.0067400010303,None,,,,,,,001,001,2022_Mar_16_1537,2-25_cond_decay,2021.2.3,165.0077858527325,
right,0.75,1.0,1,1,0,1,0,1,0,1,0,0,2,2,1,,,,,,,,,,,,,,,5s,633.0124175269157,634.0131362879183,634.0073607610539,None,635.0073725578841,637.8305758910719,635.0073725578841,637.8305758910719,637.824056935031,None,637.824056935031,None,space,0.32839169004000723,637.824056935031,None,2.8154,638.1638426799327,None,,,,,,,001,001,2022_Mar_16_1537,2-25_cond_decay,2021.2.3,165.0077858527325,
right,1.0,0.75,0,1,0,1,0,1,0,1,0,0,3,3,7,,,,,,,,,,,,,,,5s,639.1648205099627,640.1644093729556,640.1586590509396,None,641.1591543809045,644.1101743439212,641.1591543809045,644.1101743439212,644.1101743439212,None,644.1101743439212,None,space,0.5063032619655132,644.1101743439212,None,2.9514,644.6297861479688,None,,,,,,,001,001,2022_Mar_16_1537,2-25_cond_decay,2021.2.3,165.0077858527325,
left,1.0,0.75,1,1,0,1,0,1,0,1,0,0,4,4,4,,,,,,,,,,,,,,,5s,645.6360177160241,646.6372260779608,646.6315285030287,None,647.6316724750213,651.2603366370313,647.6316724750213,651.2603366370313,651.2540004299954,None,651.2540004299954,None,space,0.3304789448156953,651.2540004299954,None,3.6219,651.6054732759949,None,,,,,,,001,001,2022_Mar_16_1537,2-25_cond_decay,2021.2.3,165.0077858527325,
right,1.0,0.75,0,1,0,1,0,1,0,1,0,0,5,5,8,,,,,,,,,,,,,,,5s,652.6121691658627,653.6133616098668,653.6066756420769,None,654.6068328679539,655.0066934418865,654.6068328679539,655.0066934418865,655.0066934418865,None,655.0066934418865,None,space,0.3857076109852642,655.0066934418865,None,0.4011,655.405480914982,None,,,,,,,001,001,2022_Mar_16_1537,2-25_cond_decay,2021.2.3,165.0077858527325,
left,0.75,1.0,0,1,0,1,0,1,0,1,0,0,6,6,2,,,,,,,,,,,,,,,5s,656.411750986008,657.4126566709019,657.4067995098885,None,658.4075175949838,661.9884198058862,658.4075175949838,661.9884198058862,661.9819043630268,None,661.9819043630268,None,space,0.4105785000137985,661.9819043630268,None,3.5735,662.4055475110654,None,,,,,,,001,001,2022_Mar_16_1537,2-25_cond_decay,2021.2.3,165.0077858527325,
right,1.0,0.75,0,1,0,1,0,1,0,1,0,0,7,7,5,,,,,,,,,,,,,,,5s,663.411585008027,664.4124830369838,664.4067182859872,None,665.4073272249661,666.9518583689351,665.4073272249661,666.9518583689351,666.9518583689351,None,666.9518583689351,None,space,0.45660790684632957,666.9518583689351,None,1.5456,667.4302830989473,None,,,,,,,001,001,2022_Mar_16_1537,2-25_cond_decay,2021.2.3,165.0077858527325,
right,1.0,0.75,0,1,0,1,0,1,0,1,0,0,8,8,3,,,,,,,,,,,,,,,5s,668.4315832748543,669.4315419760533,669.4247627779841,None,670.4248931030743,674.3874829069246,670.4248931030743,674.3874829069246,674.3809464399237,None,674.3809464399237,None,space,0.4515463050920516,674.3809464399237,None,3.9551,674.8535762499087,None,,,,,,,001,001,2022_Mar_16_1537,2-25_cond_decay,2021.2.3,165.0077858527325,
left,0.75,1.0,0,1,0,1,0,1,0,1,0,0,9,9,9,,,,,,,,,,,,,,,5s,675.8596623840276,676.861297528958,676.8555213720538,None,677.8549425590318,682.43688522093,677.8549425590318,682.43688522093,682.43688522093,None,682.43688522093,None,space,0.3795875939540565,682.43688522093,None,4.5808,682.8296753109898,None,,,,,,,001,001,2022_Mar_16_1537,2-25_cond_decay,2021.2.3,165.0077858527325,
left,0.75,1.0,0,1,0,1,0,1,0,1,0,1,0,10,0,,,,,,,,,,,,,,,5s,683.8306811868679,684.8308592310641,684.8252359300386,None,685.8245181830134,688.3637418260332,685.8245181830134,688.3637418260332,688.3637418260332,None,688.3637418260332,None,space,0.3727470920421183,688.3637418260332,None,2.5382,688.7510617240332,None,,,,,,,001,001,2022_Mar_16_1537,2-25_cond_decay,2021.2.3,165.0077858527325,
left,0.75,1.0,0,1,0,1,0,1,0,1,0,1,1,11,2,,,,,,,,,,,,,,,5s,689.7518502329476,690.7517977710813,690.7460344340652,None,691.745548191946,693.8186059100553,691.745548191946,693.8186059100553,693.8186059100553,None,693.8186059100553,None,space,0.5258756170514971,693.8186059100553,None,2.0713,694.3564345699269,None,,,,,,,001,001,2022_Mar_16_1537,2-25_cond_decay,2021.2.3,165.0077858527325,
right,1.0,0.75,0,1,0,1,0,1,0,1,0,1,2,12,7,,,,,,,,,,,,,,,5s,695.3628647748847,696.3635952458717,696.3578620678745,None,697.3580889059231,698.1931441389024,697.3580889059231,698.1931441389024,698.1867307380307,None,698.1867307380307,None,space,0.34175123693421483,698.1867307380307,None,0.8278,698.5502778568771,None,,,,,,,001,001,2022_Mar_16_1537,2-25_cond_decay,2021.2.3,165.0077858527325,
left,0.75,1.0,0,1,0,1,0,1,0,1,0,1,3,13,9,,,,,,,,,,,,,,,5s,699.5571688790806,700.5580121900421,700.5523692360148,None,701.5513988230377,702.6657474169042,701.5513988230377,702.6657474169042,702.6592191960663,None,702.6592191960663,None,space,0.3892710430081934,702.6592191960663,None,1.1075,703.059616639046,None,,,,,,,001,001,2022_Mar_16_1537,2-25_cond_decay,2021.2.3,165.0077858527325,
right,1.0,0.75,0,1,0,1,0,1,0,1,0,1,4,14,8,,,,,,,,,,,,,,,5s,704.0653514899313,705.0666173719801,705.060892472975,None,706.0608606019523,706.525856585009,706.0608606019523,706.525856585009,706.5204177850392,None,706.5204177850392,None,space,0.34406330808997154,706.5204177850392,None,0.4558,706.8780347739812,None,,,,,,,001,001,2022_Mar_16_1537,2-25_cond_decay,2021.2.3,165.0077858527325,
right,1.0,0.75,0,1,0,1,0,1,0,1,0,1,5,15,5,,,,,,,,,,,,,,,5s,707.8789498498663,708.8792958608828,708.872585728066,None,709.8731826429721,714.7451088400558,709.8731826429721,714.7451088400558,714.7385544329882,None,714.7385544329882,None,space,0.41385750914923847,714.7385544329882,None,4.8616,715.1700930958614,None,,,,,,,001,001,2022_Mar_16_1537,2-25_cond_decay,2021.2.3,165.0077858527325,
right,1.0,0.75,0,1,0,1,0,1,0,1,0,1,6,16,3,,,,,,,,,,,,,,,5s,716.1699518158566,717.1694916270208,717.163736507995,None,718.16376764304,720.1512927529402,718.16376764304,720.1512927529402,720.1512927529402,None,720.1512927529402,None,space,0.3691846870351583,720.1512927529402,None,1.9875,720.5322128280532,None,,,,,,,001,001,2022_Mar_16_1537,2-25_cond_decay,2021.2.3,165.0077858527325,
right,0.75,1.0,1,1,0,1,0,1,0,1,0,1,7,17,1,,,,,,,,,,,,,,,5s,721.5337993169669,722.5332407909445,722.5276457220316,None,723.5268948299345,726.3442727399524,723.5268948299345,726.3442727399524,726.3377552379388,None,726.3377552379388,None,space,0.40674431808292866,726.3377552379388,None,2.808,726.7567068098579,None,,,,,,,001,001,2022_Mar_16_1537,2-25_cond_decay,2021.2.3,165.0077858527325,
left,0.75,1.0,0,1,0,1,0,1,0,1,0,1,8,18,6,,,,,,,,,,,,,,,5s,727.762766680913,728.7635621009395,728.7578695709817,None,729.7579381589312,734.708610485075,729.7579381589312,734.708610485075,734.7032096069306,735.7031468979549,734.7032096069306,735.7031468979549,None,,734.7032096069306,735.7031468979549,4.946,735.7200150149874,None,,,,,,,001,001,2022_Mar_16_1537,2-25_cond_decay,2021.2.3,165.0077858527325,
left,1.0,0.75,1,1,0,1,0,1,0,1,0,1,9,19,4,,,,,,,,,,,,,,,5s,736.7150070129428,737.7148592360318,737.7092103129253,None,738.7082707220688,742.9199488149025,738.7082707220688,742.9199488149025,742.9134246590547,None,742.9134246590547,None,None,,742.9134246590547,None,4.2031,743.9196183690801,None,,,,,,,001,001,2022_Mar_16_1537,2-25_cond_decay,2021.2.3,165.0077858527325,
,,,,1,0,1,0,1,0,1,0,,,,,,,,,,,,,,,,,,,,,,,,,,,,,,,,,,,,,,,,,,,,,001,001,2022_Mar_16_1537,2-25_cond_decay,2021.2.3,165.0077858527325,
right,1.0,0.75,0,1,0,1,0,2,0,2,0,0,0,0,7,,,,,,,,,744.926727573853,None,744.926727573853,None,744.926727573853,None,1s,746.3313895328902,747.3334080839995,747.3205089198891,None,748.3209058579523,749.163020163076,748.3209058579523,749.163020163076,749.163020163076,None,749.163020163076,None,space,0.2934629889205098,749.163020163076,None,0.841,749.478389822878,None,,,,,,,001,001,2022_Mar_16_1537,2-25_cond_decay,2021.2.3,165.0077858527325,
left,0.75,1.0,0,1,0,1,0,2,0,2,0,0,1,1,8,,,,,,,,,,,,,,,1s,750.4828940609004,751.4847953279968,751.4780600238591,None,752.4778709120583,753.1138550189789,752.4778709120583,753.1138550189789,753.1072103369515,None,753.1072103369515,None,space,0.2612920741084963,753.1072103369515,None,0.6292,753.3802320258692,None,,,,,,,001,001,2022_Mar_16_1537,2-25_cond_decay,2021.2.3,165.0077858527325,
left,0.75,1.0,0,1,0,1,0,2,0,2,0,0,2,2,1,,,,,,,,,,,,,,,1s,754.3811662809458,755.381572518032,755.3749941990245,None,756.3752233779524,757.3750201358926,756.3752233779524,757.3750201358926,757.3696345710196,None,757.3696345710196,None,space,0.40678842714987695,757.3696345710196,None,0.995,757.7987789579201,None,,,,,,,001,001,2022_Mar_16_1537,2-25_cond_decay,2021.2.3,165.0077858527325,
left,0.75,1.0,0,1,0,1,0,2,0,2,0,0,3,3,6,,,,,,,,,,,,,,,1s,758.7997413419653,759.7995069629978,759.7938383580185,None,760.793212458957,760.9739946620539,760.793212458957,760.9739946620539,760.9675169880502,None,760.9675169880502,None,space,0.3529817331582308,760.9675169880502,None,0.1736,761.3318109670654,None,,,,,,,001,001,2022_Mar_16_1537,2-25_cond_decay,2021.2.3,165.0077858527325,
right,1.0,0.75,0,1,0,1,0,2,0,2,0,0,4,4,4,,,,,,,,,,,,,,,1s,762.3379760880489,763.3390485849231,763.3322725759353,None,764.3328622460831,764.5024549788795,764.3328622460831,764.5024549788795,764.4967642868869,None,764.4967642868869,None,space,0.3036539319436997,764.4967642868869,None,0.1645,764.822875814978,None,,,,,,,001,001,2022_Mar_16_1537,2-25_cond_decay,2021.2.3,165.0077858527325,
right,1.0,0.75,0,1,0,1,0,2,0,2,0,0,5,5,5,,,,,,,,,,,,,,,1s,765.8239332840312,766.823173400946,766.8174029749352,None,767.8179148358759,768.3087716829032,767.8179148358759,768.3087716829032,768.3087716829032,None,768.3087716829032,None,space,0.3477047570049763,768.3087716829032,None,0.4903,768.6763811300043,None,,,,,,,001,001,2022_Mar_16_1537,2-25_cond_decay,2021.2.3,165.0077858527325,
right,0.75,1.0,1,1,0,1,0,2,0,2,0,0,6,6,3,,,,,,,,,,,,,,,1s,769.6776502600405,770.6779233920388,770.6723327289801,None,771.6724192339461,772.4051078320481,771.6724192339461,772.4051078320481,772.3984527469147,None,772.3984527469147,None,space,0.31403755117207766,772.3984527469147,None,0.7255,772.7258984139189,None,,,,,,,001,001,2022_Mar_16_1537,2-25_cond_decay,2021.2.3,165.0077858527325,
left,1.0,0.75,1,1,0,1,0,2,0,2,0,0,7,7,0,,,,,,,,,,,,,,,1s,773.7310557439923,774.7320978150237,774.7263667460065,None,775.7259818948805,776.5920792059042,775.7259818948805,776.5920792059042,776.5854644109495,None,776.5854644109495,None,space,0.32704330515116453,776.5854644109495,None,0.857,776.9246972480323,None,,,,,,,001,001,2022_Mar_16_1537,2-25_cond_decay,2021.2.3,165.0077858527325,
left,0.75,1.0,0,1,0,1,0,2,0,2,0,0,8,8,9,,,,,,,,,,,,,,,1s,777.9261738250498,778.9261430979241,778.9204515409656,None,779.9199349558912,780.1616809670813,779.9199349558912,780.1616809670813,780.1551578729413,None,780.1551578729413,None,space,0.3813401139341295,780.1551578729413,None,0.2341,780.5499261650257,None,,,,,,,001,001,2022_Mar_16_1537,2-25_cond_decay,2021.2.3,165.0077858527325,
right,1.0,0.75,0,1,0,1,0,2,0,2,0,0,9,9,2,,,,,,,,,,,,,,,1s,781.5552040669136,782.5563499899581,782.5506649638992,None,783.5508541888557,784.0289479820058,783.5508541888557,784.0289479820058,784.0289479820058,None,784.0289479820058,None,space,0.28354063304141164,784.0289479820058,None,0.4786,784.3245722758584,None,,,,,,,001,001,2022_Mar_16_1537,2-25_cond_decay,2021.2.3,165.0077858527325,
right,1.0,0.75,0,1,0,1,0,2,0,2,0,1,0,10,5,,,,,,,,,,,,,,,1s,785.325961997034,786.3263685000129,786.3206041250378,None,787.3201958958525,788.0476306660566,787.3201958958525,788.0476306660566,788.0476306660566,None,788.0476306660566,None,space,0.8568576679099351,788.0476306660566,None,0.7268,788.9246622740757,None,,,,,,,001,001,2022_Mar_16_1537,2-25_cond_decay,2021.2.3,165.0077858527325,
right,1.0,0.75,0,1,0,1,0,2,0,2,0,1,1,11,2,,,,,,,,,,,,,,,1s,789.9263054840267,790.9261863150168,790.9206210470293,None,791.9204798808787,792.5369695390109,791.9204798808787,792.5369695390109,792.5305443699472,None,792.5305443699472,None,space,0.2939510610885918,792.5305443699472,None,0.6094,792.8418315220624,None,,,,,,,001,001,2022_Mar_16_1537,2-25_cond_decay,2021.2.3,165.0077858527325,
left,0.75,1.0,0,1,0,1,0,2,0,2,0,1,2,12,6,,,,,,,,,,,,,,,1s,793.8467724460643,794.8472460950725,794.8415239870083,None,795.841737458948,796.2097679500002,795.841737458948,796.2097679500002,796.2032744479366,None,796.2032744479366,None,space,0.3572851449716836,796.2032744479366,None,0.3597,796.5739151570015,None,,,,,,,001,001,2022_Mar_16_1537,2-25_cond_decay,2021.2.3,165.0077858527325,
right,0.75,1.0,1,1,0,1,0,2,0,2,0,1,3,13,3,,,,,,,,,,,,,,,1s,797.579887178028,798.5805129299406,798.5746056658681,None,799.5744427749887,800.4774662060663,799.5744427749887,800.4774662060663,800.4774662060663,None,800.4774662060663,None,space,0.2909977559465915,800.4774662060663,None,0.9014,800.7798599200323,None,,,,,,,001,001,2022_Mar_16_1537,2-25_cond_decay,2021.2.3,165.0077858527325,
left,0.75,1.0,0,1,0,1,0,2,0,2,0,1,4,14,8,,,,,,,,,,,,,,,1s,801.7849587979726,802.787002885947,802.7802882599644,None,803.7804241119884,804.2410379410721,803.7804241119884,804.2410379410721,804.2344123260118,None,804.2344123260118,None,space,0.3420802929904312,804.2344123260118,None,0.4504,804.5979739150498,None,,,,,,,001,001,2022_Mar_16_1537,2-25_cond_decay,2021.2.3,165.0077858527325,
right,1.0,0.75,0,1,0,1,0,2,0,2,0,1,5,15,4,,,,,,,,,,,,,,,1s,805.6032090019435,806.6046777518932,806.599080605898,None,807.5986013389193,807.8774168710224,807.5986013389193,807.8774168710224,807.8774168710224,None,807.8774168710224,None,space,0.42708565783686936,807.8774168710224,None,0.2771,808.3192001678981,None,,,,,,,001,001,2022_Mar_16_1537,2-25_cond_decay,2021.2.3,165.0077858527325,
right,1.0,0.75,0,1,0,1,0,2,0,2,0,1,6,16,7,,,,,,,,,,,,,,,1s,809.320354077965,810.3197878908832,810.314153164858,None,811.3133632000536,811.7982596140355,811.3133632000536,811.7982596140355,811.7982596140355,None,811.7982596140355,None,space,0.31417135684750974,811.7982596140355,None,0.4848,812.1242736219428,None,,,,,,,001,001,2022_Mar_16_1537,2-25_cond_decay,2021.2.3,165.0077858527325,
left,0.75,1.0,0,1,0,1,0,2,0,2,0,1,7,17,1,,,,,,,,,,,,,,,1s,813.1308946839999,814.1319518170785,814.1262913930696,None,815.1262782788835,815.652009463869,815.1262782788835,815.652009463869,815.6455800088588,None,815.6455800088588,None,space,0.3149136961437762,815.6455800088588,None,0.52,815.9726327869575,None,,,,,,,001,001,2022_Mar_16_1537,2-25_cond_decay,2021.2.3,165.0077858527325,
left,1.0,0.75,1,1,0,1,0,2,0,2,0,1,8,18,0,,,,,,,,,,,,,,,1s,816.973998920992,817.9745430299081,817.9677959629335,None,818.9677537579555,819.3730856040493,818.9677537579555,819.3730856040493,819.3665522839874,None,819.3665522839874,None,space,0.31399452197365463,819.3665522839874,None,0.3973,819.6938665618654,None,,,,,,,001,001,2022_Mar_16_1537,2-25_cond_decay,2021.2.3,165.0077858527325,
left,0.75,1.0,0,1,0,1,0,2,0,2,0,1,9,19,9,,,,,,,,,,,,,,,1s,820.6956491728779,821.6958696839865,821.6892215330154,None,822.6892875379417,823.2045852809679,822.6892875379417,823.2045852809679,823.2045852809679,None,823.2045852809679,None,space,0.29183981800451875,823.2045852809679,None,0.5161,823.5190257420763,None,,,,,,,001,001,2022_Mar_16_1537,2-25_cond_decay,2021.2.3,165.0077858527325,
,,,,1,0,1,0,2,0,2,0,,,,,,,,,,,,,,,,,,,,,,,,,,,,,,,,,,,,,,,,,,,,,001,001,2022_Mar_16_1537,2-25_cond_decay,2021.2.3,165.0077858527325,
right,1.0,0.75,0,1,0,1,0,3,0,3,0,0,0,0,7,,,,,,,,,824.5300590258557,None,824.5300590258557,None,824.5300590258557,None,3s,825.5059108510613,826.5079539648723,826.4954774610233,None,827.4955230420455,827.9562470458914,827.4955230420455,827.9562470458914,827.9562470458914,None,827.9562470458914,None,space,0.34024519799277186,827.9562470458914,None,0.458,828.3180896940175,None,,,,,,,001,001,2022_Mar_16_1537,2-25_cond_decay,2021.2.3,165.0077858527325,
right,1.0,0.75,0,1,0,1,0,3,0,3,0,0,1,1,1,,,,,,,,,,,,,,,3s,829.3198565719649,830.3191541938577,830.3133949839976,None,831.3136139980052,833.8652516179718,831.3136139980052,833.8652516179718,833.8652516179718,None,833.8652516179718,None,space,0.3192481859587133,833.8652516179718,None,2.5491,834.1967233140022,None,,,,,,,001,001,2022_Mar_16_1537,2-25_cond_decay,2021.2.3,165.0077858527325,
right,1.0,0.75,0,1,0,1,0,3,0,3,0,0,2,2,0,,,,,,,,,,,,,,,3s,835.1982481000014,836.1983195650391,836.1925859679468,None,837.1919589450117,838.9013052128721,837.1919589450117,838.9013052128721,838.9013052128721,None,838.9013052128721,None,space,0.3312013528775424,838.9013052128721,None,1.7067,839.2457631549332,None,,,,,,,001,001,2022_Mar_16_1537,2-25_cond_decay,2021.2.3,165.0077858527325,
left,1.0,0.75,1,1,0,1,0,3,0,3,0,0,3,3,8,,,,,,,,,,,,,,,3s,840.2520565050654,841.2530659439508,841.2470321939327,None,842.2464362520259,845.0881076599471,842.2464362520259,845.0881076599471,845.081507184077,None,845.081507184077,None,space,0.3349363240413368,845.081507184077,None,2.8348,845.4389037268702,None,,,,,,,001,001,2022_Mar_16_1537,2-25_cond_decay,2021.2.3,165.0077858527325,
left,0.75,1.0,0,1,0,1,0,3,0,3,0,0,4,4,3,,,,,,,,,,,,,,,3s,846.4407727029175,847.4402698599733,847.434572635917,None,848.4347393240314,850.160827107029,848.4347393240314,850.160827107029,850.1542313280515,None,850.1542313280515,None,space,0.34227461414411664,850.1542313280515,None,1.7167,850.5134145549964,None,,,,,,,001,001,2022_Mar_16_1537,2-25_cond_decay,2021.2.3,165.0077858527325,
left,0.75,1.0,0,1,0,1,0,3,0,3,0,0,5,5,9,,,,,,,,,,,,,,,3s,851.5132998169865,852.5130547359586,852.5073763639666,None,853.5067790579051,854.8278544850182,853.5067790579051,854.8278544850182,854.8278544850182,None,854.8278544850182,None,space,0.3086541260126978,854.8278544850182,None,1.3205,855.148322439054,None,,,,,,,001,001,2022_Mar_16_1537,2-25_cond_decay,2021.2.3,165.0077858527325,
left,0.75,1.0,0,1,0,1,0,3,0,3,0,0,6,6,2,,,,,,,,,,,,,,,3s,856.149104438955,857.1492243870161,857.1434677999932,None,858.1429672350641,858.919574192958,858.1429672350641,858.919574192958,858.919574192958,None,858.919574192958,None,space,0.30492297001183033,858.919574192958,None,0.7755,859.240591132082,None,,,,,,,001,001,2022_Mar_16_1537,2-25_cond_decay,2021.2.3,165.0077858527325,
right,1.0,0.75,0,1,0,1,0,3,0,3,0,0,7,7,5,,,,,,,,,,,,,,,3s,860.2455018120818,861.2467156979255,861.2398735359311,None,862.2401447999291,863.5793242789805,862.2401447999291,863.5793242789805,863.5728652009275,None,863.5728652009275,None,space,0.33164978097192943,863.5728652009275,None,1.3309,863.9177192170173,None,,,,,,,001,001,2022_Mar_16_1537,2-25_cond_decay,2021.2.3,165.0077858527325,
right,1.0,0.75,0,1,0,1,0,3,0,3,0,0,8,8,4,,,,,,,,,,,,,,,3s,864.9186391849071,865.919245240977,865.9134091888554,None,866.9134274579119,868.3428472999949,866.9134274579119,868.3428472999949,868.3428472999949,None,868.3428472999949,None,space,0.3136064449790865,868.3428472999949,None,1.431,868.6698763070162,None,,,,,,,001,001,2022_Mar_16_1537,2-25_cond_decay,2021.2.3,165.0077858527325,
right,0.75,1.0,1,1,0,1,0,3,0,3,0,0,9,9,6,,,,,,,,,,,,,,,3s,869.6706503620371,870.6708159078844,870.6643274410162,None,871.664398395922,873.3430353619624,871.664398395922,873.3430353619624,873.3430353619624,None,873.3430353619624,None,space,0.3534605710301548,873.3430353619624,None,1.6791,873.7174867929425,None,,,,,,,001,001,2022_Mar_16_1537,2-25_cond_decay,2021.2.3,165.0077858527325,
right,1.0,0.75,0,1,0,1,0,3,0,3,0,1,0,10,0,,,,,,,,,,,,,,,3s,874.7188943228684,875.719292857917,875.7124388138764,None,876.7126104258932,876.9793668419588,876.7126104258932,876.9793668419588,876.9727826539893,None,876.9727826539893,None,None,,876.9727826539893,None,0.2571,877.9848003129009,None,,,,,,,001,001,2022_Mar_16_1537,2-25_cond_decay,2021.2.3,165.0077858527325,
left,0.75,1.0,0,1,0,1,0,3,0,3,0,1,1,11,3,,,,,,,,,,,,,,,3s,878.9838999609929,879.9857863080688,879.9789562670048,None,880.9790174709633,882.0821655509062,880.9790174709633,882.0821655509062,882.0768069219775,None,882.0768069219775,None,space,0.3557065848726779,882.0768069219775,None,1.0994,882.4512239149772,None,,,,,,,001,001,2022_Mar_16_1537,2-25_cond_decay,2021.2.3,165.0077858527325,
left,1.0,0.75,1,1,0,1,0,3,0,3,0,1,2,12,8,,,,,,,,,,,,,,,3s,883.4462561600376,884.445708069019,884.4399259460624,None,885.4395997619722,886.8820563328918,885.4395997619722,886.8820563328918,886.8820563328918,None,886.8820563328918,None,space,0.31845630891621113,886.8820563328918,None,1.4408,887.21623765002,None,,,,,,,001,001,2022_Mar_16_1537,2-25_cond_decay,2021.2.3,165.0077858527325,
right,0.75,1.0,1,1,0,1,0,3,0,3,0,1,3,13,6,,,,,,,,,,,,,,,3s,888.2208560239524,889.2216586060822,889.2160292980261,None,890.2155651149806,892.3677119619679,890.2155651149806,892.3677119619679,892.3677119619679,None,892.3677119619679,None,space,0.2807886190712452,892.3677119619679,None,2.1499,892.6646335830446,None,,,,,,,001,001,2022_Mar_16_1537,2-25_cond_decay,2021.2.3,165.0077858527325,
left,0.75,1.0,0,1,0,1,0,3,0,3,0,1,4,14,2,,,,,,,,,,,,,,,3s,893.6694335490465,894.6697054340038,894.6639265420381,None,895.664393076906,895.8390295270365,895.664393076906,895.8390295270365,895.8325847180095,None,895.8325847180095,None,space,0.3919208259321749,895.8325847180095,None,0.1651,896.2390017989092,None,,,,,,,001,001,2022_Mar_16_1537,2-25_cond_decay,2021.2.3,165.0077858527325,
right,1.0,0.75,0,1,0,1,0,3,0,3,0,1,5,15,1,,,,,,,,,,,,,,,3s,897.2451387420297,898.2459928779863,898.2393534318544,None,899.2398373510223,901.6514947169926,899.2398373510223,901.6514947169926,901.6514947169926,None,901.6514947169926,None,space,0.3329612279776484,901.6514947169926,None,2.4109,901.995585026918,None,,,,,,,001,001,2022_Mar_16_1537,2-25_cond_decay,2021.2.3,165.0077858527325,
left,0.75,1.0,0,1,0,1,0,3,0,3,0,1,6,16,7,,,,,,,,,,,,,,,3s,903.0022205559071,904.002810416976,903.9970395900309,None,904.997246166924,907.6514136109035,904.997246166924,907.6514136109035,907.6449239179492,None,907.6449239179492,None,space,0.3155829510651529,907.6449239179492,None,2.6439,907.9717307579704,None,,,,,,,001,001,2022_Mar_16_1537,2-25_cond_decay,2021.2.3,165.0077858527325,
left,0.75,1.0,0,1,0,1,0,3,0,3,0,1,7,17,9,,,,,,,,,,,,,,,3s,908.9729389969725,909.9733126440551,909.9664604619611,None,910.9671528919134,911.7362989520188,910.9671528919134,911.7362989520188,911.7362989520188,None,911.7362989520188,None,None,,911.7362989520188,None,0.7698,912.747619374888,None,,,,,,,001,001,2022_Mar_16_1537,2-25_cond_decay,2021.2.3,165.0077858527325,
right,1.0,0.75,0,1,0,1,0,3,0,3,0,1,8,18,4,,,,,,,,,,,,,,,3s,913.7469881200232,914.748162538046,914.7424136449117,None,915.7428260419983,917.2506786158774,915.7428260419983,917.2506786158774,917.2441764669493,None,917.2441764669493,None,space,0.33233155705966055,917.2441764669493,None,1.4977,917.595604053,None,,,,,,,001,001,2022_Mar_16_1537,2-25_cond_decay,2021.2.3,165.0077858527325,
right,1.0,0.75,0,1,0,1,0,3,0,3,0,1,9,19,5,,,,,,,,,,,,,,,3s,918.5905675829854,919.5906138869468,919.5848547299393,None,920.5849254948553,921.8502627438866,920.5849254948553,921.8502627438866,921.8438154358882,None,921.8438154358882,None,space,0.31669503217563033,921.8438154358882,None,1.2585,922.1711220829748,None,,,,,,,001,001,2022_Mar_16_1537,2-25_cond_decay,2021.2.3,165.0077858527325,
,,,,1,0,1,0,3,0,3,0,,,,,,,,,,,,,,,,,,,,,,,,,,,,,,,,,,,,,,,,,,,,,001,001,2022_Mar_16_1537,2-25_cond_decay,2021.2.3,165.0077858527325,
,,,,1,0,1,0,,,,,,,,,,,,,,,,,,,,,,,,,,,,,,,,,,,,,,,,,,,923.1837634360418,None,923.1837634360418,None,923.1837634360418,None,001,001,2022_Mar_16_1537,2-25_cond_decay,2021.2.3,165.0077858527325,
right,1.0,0.75,0,2,0,2,0,0,0,0,0,0,0,0,5,,,,,,,,,928.1790009308606,None,928.1790009308606,None,928.1790009308606,None,10s,930.4154508539941,931.414899789961,931.402975582052,None,932.4026476040017,936.6267706078943,932.4026476040017,936.6267706078943,936.6267706078943,None,936.6267706078943,None,space,0.34174686507321894,936.6267706078943,None,4.2237,936.9889979278669,None,,,,,,,001,001,2022_Mar_16_1537,2-25_cond_decay,2021.2.3,165.0077858527325,
right,1.0,0.75,0,2,0,2,0,0,0,0,0,0,1,1,1,,,,,,,,,,,,,,,10s,937.9905341160484,938.990889828885,938.9841514038853,None,939.9851401569322,941.4271055299323,939.9851401569322,941.4271055299323,941.4271055299323,None,941.4271055299323,None,space,0.3734083699528128,941.4271055299323,None,1.4406,941.8140887089539,None,,,,,,,001,001,2022_Mar_16_1537,2-25_cond_decay,2021.2.3,165.0077858527325,
left,1.0,0.75,1,2,0,2,0,0,0,0,0,0,2,2,3,,,,,,,,,,,,,,,10s,942.8201820598915,943.8204572519753,943.8146436249372,None,944.8145968539175,949.948548106011,944.8145968539175,949.948548106011,949.948548106011,None,949.948548106011,None,space,0.4039683460723609,949.948548106011,None,5.1322,950.3651045709848,None,,,,,,,001,001,2022_Mar_16_1537,2-25_cond_decay,2021.2.3,165.0077858527325,
right,1.0,0.75,0,2,0,2,0,0,0,0,0,0,3,3,8,,,,,,,,,,,,,,,10s,951.3715475879144,952.372298005037,952.366528149927,None,953.3658501969185,956.3722132029943,953.3658501969185,956.3722132029943,956.3722132029943,None,956.3722132029943,None,space,0.3242386661004275,956.3722132029943,None,3.005,956.715946699027,None,,,,,,,001,001,2022_Mar_16_1537,2-25_cond_decay,2021.2.3,165.0077858527325,
right,0.75,1.0,1,2,0,2,0,0,0,0,0,0,4,4,2,,,,,,,,,,,,,,,10s,957.7180289148819,958.7176080660429,958.711964654969,None,959.7115568919107,961.0981799650472,959.7115568919107,961.0981799650472,961.0918031299952,None,961.0918031299952,None,space,0.40471271704882383,961.0918031299952,None,1.3797,961.510845159879,None,,,,,,,001,001,2022_Mar_16_1537,2-25_cond_decay,2021.2.3,165.0077858527325,
left,0.75,1.0,0,2,0,2,0,0,0,0,0,0,5,5,6,,,,,,,,,,,,,,,10s,962.5167487638537,963.5172503038775,963.5114672540221,None,964.5114251149353,968.3952512349933,964.5114251149353,968.3952512349933,968.3887530139182,None,968.3887530139182,None,space,0.3557650549337268,968.3887530139182,None,3.8767,968.7650457308628,None,,,,,,,001,001,2022_Mar_16_1537,2-25_cond_decay,2021.2.3,165.0077858527325,
left,0.75,1.0,0,2,0,2,0,0,0,0,0,0,6,6,4,,,,,,,,,,,,,,,10s,969.765712223947,970.7663569939323,970.7596874888986,None,971.7598770458717,981.1412459469866,971.7598770458717,981.1412459469866,981.135833858978,None,981.135833858978,None,space,0.5286846759263426,981.135833858978,None,9.379,981.6813503960148,None,,,,,,,001,001,2022_Mar_16_1537,2-25_cond_decay,2021.2.3,165.0077858527325,
right,1.0,0.75,0,2,0,2,0,0,0,0,0,0,7,7,7,,,,,,,,,,,,,,,10s,982.685732617043,983.6876017099712,983.6807500610594,None,984.680861994857,990.7532888529822,984.680861994857,990.7532888529822,990.7466673769522,None,990.7466673769522,None,space,0.37384868902154267,990.7466673769522,None,6.0626,991.1338308120612,None,,,,,,,001,001,2022_Mar_16_1537,2-25_cond_decay,2021.2.3,165.0077858527325,
right,1.0,0.75,0,2,0,2,0,0,0,0,0,0,8,8,9,,,,,,,,,,,,,,,10s,992.1358145449776,993.1357367800083,993.128837472992,None,994.1294899859931,1002.8928646559361,994.1294899859931,1002.8928646559361,1002.8928646559361,None,1002.8928646559361,None,None,,1002.8928646559361,None,8.7638,1003.9034118279815,None,,,,,,,001,001,2022_Mar_16_1537,2-25_cond_decay,2021.2.3,165.0077858527325,
left,0.75,1.0,0,2,0,2,0,0,0,0,0,0,9,9,0,,,,,,,,,,,,,,,10s,1004.903278328944,1005.9045359650627,1005.8988475438673,None,1006.8931673739571,1016.8014212718699,1006.8931673739571,1016.8014212718699,1016.8014212718699,None,1016.8014212718699,None,space,0.40702259284444153,1016.8014212718699,None,9.9069,1017.2309883220587,None,,,,,,,001,001,2022_Mar_16_1537,2-25_cond_decay,2021.2.3,165.0077858527325,
right,0.75,1.0,1,2,0,2,0,0,0,0,0,1,0,10,2,,,,,,,,,,,,,,,10s,1018.2363712990191,1019.2377351699397,1019.2321528119501,None,1020.23190444801,1025.6802958589979,1020.23190444801,1025.6802958589979,1025.6802958589979,None,1025.6802958589979,None,space,0.7042334352154285,1025.6802958589979,None,5.4472,1026.4067613729276,None,,,,,,,001,001,2022_Mar_16_1537,2-25_cond_decay,2021.2.3,165.0077858527325,
right,1.0,0.75,0,2,0,2,0,0,0,0,0,1,1,11,8,,,,,,,,,,,,,,,10s,1027.4081291840412,1028.4071006129961,1028.4013459999114,None,1029.4011739809066,1039.357200665865,1029.4011739809066,1039.357200665865,1039.351797052892,None,1039.351797052892,None,space,0.40872444794513285,1039.351797052892,None,9.9488,1039.7774129069876,None,,,,,,,001,001,2022_Mar_16_1537,2-25_cond_decay,2021.2.3,165.0077858527325,
left,1.0,0.75,1,2,0,2,0,0,0,0,0,1,2,12,3,,,,,,,,,,,,,,,10s,1040.781379890861,1041.7835611479823,1041.7767367679626,None,1042.7773267789744,1047.4244768999051,1042.7773267789744,1047.4244768999051,1047.4179230020382,None,1047.4179230020382,None,None,,1047.4179230020382,None,4.6379,1048.430178097915,None,,,,,,,001,001,2022_Mar_16_1537,2-25_cond_decay,2021.2.3,165.0077858527325,
right,1.0,0.75,0,2,0,2,0,0,0,0,0,1,3,13,7,,,,,,,,,,,,,,,10s,1049.429917237023,1050.4309747440275,1050.4252464540768,None,1051.4254668180365,1054.8486264268868,1051.4254668180365,1054.8486264268868,1054.8419557360467,None,1054.8419557360467,None,space,0.33454536413773894,1054.8419557360467,None,3.4144,1055.1937319668941,None,,,,,,,001,001,2022_Mar_16_1537,2-25_cond_decay,2021.2.3,165.0077858527325,
right,1.0,0.75,0,2,0,2,0,0,0,0,0,1,4,14,1,,,,,,,,,,,,,,,10s,1056.1894998298958,1057.1887451040093,1057.183146012947,None,1058.1833247870672,1065.5459245240781,1058.1833247870672,1065.5459245240781,1065.5393943749368,None,1065.5393943749368,None,space,0.3650635089725256,1065.5393943749368,None,7.3538,1065.9222018599976,None,,,,,,,001,001,2022_Mar_16_1537,2-25_cond_decay,2021.2.3,165.0077858527325,
left,0.75,1.0,0,2,0,2,0,0,0,0,0,1,5,15,6,,,,,,,,,,,,,,,10s,1066.9270823700354,1067.927846465027,1067.9222503390629,None,1068.922138982918,1073.8489940429572,1068.922138982918,1073.8489940429572,1073.8489940429572,None,1073.8489940429572,None,space,0.3674616520293057,1073.8489940429572,None,4.9282,1074.229622554034,None,,,,,,,001,001,2022_Mar_16_1537,2-25_cond_decay,2021.2.3,165.0077858527325,
left,0.75,1.0,0,2,0,2,0,0,0,0,0,1,6,16,5,,,,,,,,,,,,,,,10s,1075.2307995709125,1076.2308492918964,1076.2250896028709,None,1077.2251893039793,1086.6609642009716,1077.2251893039793,1086.6609642009716,1086.6543389188591,None,1086.6543389188591,None,space,0.37820958788506687,1086.6543389188591,None,9.4269,1087.0490288638975,None,,,,,,,001,001,2022_Mar_16_1537,2-25_cond_decay,2021.2.3,165.0077858527325,
right,1.0,0.75,0,2,0,2,0,0,0,0,0,1,7,17,9,,,,,,,,,,,,,,,10s,1088.0542189460248,1089.0553827108815,1089.0495367238764,None,1090.0484991150443,1091.4903415299486,1090.0484991150443,1091.4903415299486,1091.483690428082,None,1091.483690428082,None,space,0.4848660589195788,1091.483690428082,None,1.4321,1091.980691862991,None,,,,,,,001,001,2022_Mar_16_1537,2-25_cond_decay,2021.2.3,165.0077858527325,
left,0.75,1.0,0,2,0,2,0,0,0,0,0,1,8,18,4,,,,,,,,,,,,,,,10s,1092.9874470760114,1093.9881871799007,1093.982506677974,None,1094.9822494068649,1096.612753701862,1094.9822494068649,1096.612753701862,1096.612753701862,None,1096.612753701862,None,space,0.3717744571622461,1096.612753701862,None,1.6308,1097.0050879360642,None,,,,,,,001,001,2022_Mar_16_1537,2-25_cond_decay,2021.2.3,165.0077858527325,
left,0.75,1.0,0,2,0,2,0,0,0,0,0,1,9,19,0,,,,,,,,,,,,,,,10s,1098.0067910798825,1099.0065387950744,1099.0009237569757,None,1100.0000413709786,1109.8127326739486,1100.0000413709786,1109.8127326739486,1109.8127326739486,None,1109.8127326739486,None,space,0.42780726007185876,1109.8127326739486,None,9.8133,1110.2538299779408,None,,,,,,,001,001,2022_Mar_16_1537,2-25_cond_decay,2021.2.3,165.0077858527325,
,,,,2,0,2,0,0,0,0,0,,,,,,,,,,,,,,,,,,,,,,,,,,,,,,,,,,,,,,,,,,,,,001,001,2022_Mar_16_1537,2-25_cond_decay,2021.2.3,165.0077858527325,
right,1.0,0.75,0,2,0,2,0,1,0,1,0,0,0,0,4,,,,,,,,,1111.2652833350003,None,1111.2652833350003,None,1111.2652833350003,None,5s,1112.495690400945,1113.4976447338704,1113.484626316931,None,1114.4853511869442,1115.404823266901,1114.4853511869442,1115.404823266901,1115.3984507850837,None,1115.3984507850837,None,space,0.3140595220029354,1115.3984507850837,None,0.9103,1115.7269853169564,None,,,,,,,001,001,2022_Mar_16_1537,2-25_cond_decay,2021.2.3,165.0077858527325,
left,0.75,1.0,0,2,0,2,0,1,0,1,0,0,1,1,0,,,,,,,,,,,,,,,5s,1116.7318227640353,1117.733345835004,1117.727549609961,None,1118.7270006509498,1123.5573145679664,1118.7270006509498,1123.5573145679664,1123.5573145679664,None,1123.5573145679664,None,space,0.3872643930371851,1123.5573145679664,None,4.8288,1123.9566291200463,None,,,,,,,001,001,2022_Mar_16_1537,2-25_cond_decay,2021.2.3,165.0077858527325,
left,0.75,1.0,0,2,0,2,0,1,0,1,0,0,2,2,9,,,,,,,,,,,,,,,5s,1124.9578889170662,1125.9579899678938,1125.9511019450147,None,1126.9510992888827,1130.835199000081,1126.9510992888827,1130.835199000081,1130.828694184078,None,1130.828694184078,None,space,0.34777687699534,1130.828694184078,None,3.8757,1131.1943193790503,None,,,,,,,001,001,2022_Mar_16_1537,2-25_cond_decay,2021.2.3,165.0077858527325,
left,1.0,0.75,1,2,0,2,0,1,0,1,0,0,3,3,1,,,,,,,,,,,,,,,5s,1132.1942866079044,1133.1940804929473,1133.1873248738702,None,1134.188136515906,1135.9942922468763,1134.188136515906,1135.9942922468763,1135.9942922468763,None,1135.9942922468763,None,space,0.41424716310575604,1135.9942922468763,None,1.8057,1136.42292291997,None,,,,,,,001,001,2022_Mar_16_1537,2-25_cond_decay,2021.2.3,165.0077858527325,
right,1.0,0.75,0,2,0,2,0,1,0,1,0,0,4,4,5,,,,,,,,,,,,,,,5s,1137.428482859861,1138.429739356041,1138.4240307689179,None,1139.424445841927,1144.3754292719532,1139.424445841927,1144.3754292719532,1144.3685567888897,None,1144.3685567888897,None,space,0.3759944699704647,1144.3685567888897,None,4.9422,1144.7562958160415,None,,,,,,,001,001,2022_Mar_16_1537,2-25_cond_decay,2021.2.3,165.0077858527325,
left,0.75,1.0,0,2,0,2,0,1,0,1,0,0,5,5,6,,,,,,,,,,,,,,,5s,1145.7618530159816,1146.7629950370174,1146.757258394966,None,1147.7572251348756,1151.7451133730356,1147.7572251348756,1151.7451133730356,1151.7382981870323,None,1151.7382981870323,None,space,0.34225363191217184,1151.7382981870323,None,3.9767,1152.0970004859846,None,,,,,,,001,001,2022_Mar_16_1537,2-25_cond_decay,2021.2.3,165.0077858527325,
left,0.75,1.0,0,2,0,2,0,1,0,1,0,0,6,6,7,,,,,,,,,,,,,,,5s,1153.0961222308688,1154.0962186779361,1154.0904990229756,None,1155.090942536015,1156.0057658839505,1155.090942536015,1156.0057658839505,1156.0057658839505,None,1156.0057658839505,None,space,0.3547801619861275,1156.0057658839505,None,0.9144,1156.3741272878833,None,,,,,,,001,001,2022_Mar_16_1537,2-25_cond_decay,2021.2.3,165.0077858527325,
right,1.0,0.75,0,2,0,2,0,1,0,1,0,0,7,7,8,,,,,,,,,,,,,,,5s,1157.379702217877,1158.3810223948676,1158.3752517108805,None,1159.3752110910136,1164.0293969758786,1159.3752110910136,1164.0293969758786,1164.0293969758786,None,1164.0293969758786,None,None,,1164.0293969758786,None,4.6528,1165.0402716840617,None,,,,,,,001,001,2022_Mar_16_1537,2-25_cond_decay,2021.2.3,165.0077858527325,
right,1.0,0.75,0,2,0,2,0,1,0,1,0,0,8,8,2,,,,,,,,,,,,,,,5s,1166.0357200279832,1167.0356667248998,1167.030049141962,None,1168.0300778208766,1172.2111382868607,1168.0300778208766,1172.2111382868607,1172.205744707957,None,1172.205744707957,None,space,0.3148167780600488,1172.205744707957,None,4.1777,1172.5373345690314,None,,,,,,,001,001,2022_Mar_16_1537,2-25_cond_decay,2021.2.3,165.0077858527325,
right,1.0,0.75,0,2,0,2,0,1,0,1,0,0,9,9,3,,,,,,,,,,,,,,,5s,1173.5321840748657,1174.5331043589395,1174.5262912460603,None,1175.5262936479412,1177.1269670738839,1175.5262936479412,1177.1269670738839,1177.1269670738839,None,1177.1269670738839,None,space,0.3535664309747517,1177.1269670738839,None,1.6009,1177.5013828938827,None,,,,,,,001,001,2022_Mar_16_1537,2-25_cond_decay,2021.2.3,165.0077858527325,
left,0.75,1.0,0,2,0,2,0,1,0,1,0,1,0,10,9,,,,,,,,,,,,,,,5s,1178.5065760519356,1179.5086431279778,1179.5018251289148,None,1180.5017923628911,1184.4415078030434,1180.5017923628911,1184.4415078030434,1184.4415078030434,None,1184.4415078030434,None,space,0.3270522959064692,1184.4415078030434,None,3.9399,1184.7798645310104,None,,,,,,,001,001,2022_Mar_16_1537,2-25_cond_decay,2021.2.3,165.0077858527325,
right,0.75,1.0,1,2,0,2,0,1,0,1,0,1,1,11,4,,,,,,,,,,,,,,,5s,1185.7861017358955,1186.7866206150502,1186.7809128670488,None,1187.7813415350392,1191.3434301689267,1187.7813415350392,1191.3434301689267,1191.3367824880406,None,1191.3367824880406,None,None,,1191.3367824880406,None,3.553,1192.3491280400194,None,,,,,,,001,001,2022_Mar_16_1537,2-25_cond_decay,2021.2.3,165.0077858527325,
right,1.0,0.75,0,2,0,2,0,1,0,1,0,1,2,12,3,,,,,,,,,,,,,,,5s,1193.344373791013,1194.3446086179465,1194.337875369005,None,1195.337855351856,1196.7449091130402,1195.337855351856,1196.7449091130402,1196.7373527658638,None,1196.7373527658638,None,None,,1196.7373527658638,None,1.3961,1197.743459329009,None,,,,,,,001,001,2022_Mar_16_1537,2-25_cond_decay,2021.2.3,165.0077858527325,
right,1.0,0.75,0,2,0,2,0,1,0,1,0,1,3,13,2,,,,,,,,,,,,,,,5s,1198.743950275937,1199.7438424839638,1199.7380859539844,None,1200.7380415028892,1205.0580137418583,1200.7380415028892,1205.0580137418583,1205.0516442758963,None,1205.0516442758963,None,space,0.31684860098175704,1205.0516442758963,None,4.3104,1205.385717289988,None,,,,,,,001,001,2022_Mar_16_1537,2-25_cond_decay,2021.2.3,165.0077858527325,
right,1.0,0.75,0,2,0,2,0,1,0,1,0,1,4,14,5,,,,,,,,,,,,,,,5s,1206.3805966400541,1207.3808342718985,1207.375096196076,None,1208.3743438280653,1212.2650745520368,1208.3743438280653,1212.2650745520368,1212.2650745520368,None,1212.2650745520368,None,space,0.3034151850733906,1212.2650745520368,None,3.8896,1212.5869966358878,None,,,,,,,001,001,2022_Mar_16_1537,2-25_cond_decay,2021.2.3,165.0077858527325,
left,0.75,1.0,0,2,0,2,0,1,0,1,0,1,5,15,6,,,,,,,,,,,,,,,5s,1213.591081022052,1214.5921771358699,1214.5864294150379,None,1215.5862862670328,1217.4287641730625,1215.5862862670328,1217.4287641730625,1217.4232550649904,None,1217.4232550649904,None,None,,1217.4232550649904,None,1.8375,1218.4341081378516,None,,,,,,,001,001,2022_Mar_16_1537,2-25_cond_decay,2021.2.3,165.0077858527325,
right,1.0,0.75,0,2,0,2,0,1,0,1,0,1,6,16,8,,,,,,,,,,,,,,,5s,1219.4337899119128,1220.4347211988643,1220.429009544896,None,1221.428745734971,1222.4953158900607,1221.428745734971,1222.4953158900607,1222.4953158900607,None,1222.4953158900607,None,space,0.40122839994728565,1222.4953158900607,None,1.0678,1222.9202899970114,None,,,,,,,001,001,2022_Mar_16_1537,2-25_cond_decay,2021.2.3,165.0077858527325,
left,0.75,1.0,0,2,0,2,0,1,0,1,0,1,7,17,7,,,,,,,,,,,,,,,5s,1223.9243703109678,1224.9258257800248,1224.9199844258837,None,1225.919618763961,1230.4457316170447,1225.919618763961,1230.4457316170447,1230.4392231658567,None,1230.4392231658567,None,space,0.2093235719949007,1230.4392231658567,None,4.519,1230.6655357899144,None,,,,,,,001,001,2022_Mar_16_1537,2-25_cond_decay,2021.2.3,165.0077858527325,
left,0.75,1.0,0,2,0,2,0,1,0,1,0,1,8,18,0,,,,,,,,,,,,,,,5s,1231.664833599003,1232.664821766084,1232.6591326000635,None,1233.658757562982,1235.6586729709525,1233.658757562982,1235.6586729709525,1235.6586729709525,None,1235.6586729709525,None,space,0.34186503617092967,1235.6586729709525,None,2.0001,1236.0209033039864,None,,,,,,,001,001,2022_Mar_16_1537,2-25_cond_decay,2021.2.3,165.0077858527325,
left,1.0,0.75,1,2,0,2,0,1,0,1,0,1,9,19,1,,,,,,,,,,,,,,,5s,1237.022421154892,1238.0230010950472,1238.0162327049766,None,1239.0166936758906,1241.1137859178707,1239.0166936758906,1241.1137859178707,1241.1137859178707,None,1241.1137859178707,None,space,0.350769730983302,1241.1137859178707,None,2.0957,1241.4760467759334,None,,,,,,,001,001,2022_Mar_16_1537,2-25_cond_decay,2021.2.3,165.0077858527325,
,,,,2,0,2,0,1,0,1,0,,,,,,,,,,,,,,,,,,,,,,,,,,,,,,,,,,,,,,,,,,,,,001,001,2022_Mar_16_1537,2-25_cond_decay,2021.2.3,165.0077858527325,
right,1.0,0.75,0,2,0,2,0,2,0,2,0,0,0,0,7,,,,,,,,,1242.4826675299555,None,1242.4826675299555,None,1242.4826675299555,None,1s,1244.4096042618621,1245.409979387885,1245.398113777861,None,1246.3986214709003,1247.144098534016,1246.3986214709003,1247.144098534016,1247.144098534016,None,1247.144098534016,None,space,0.28045468404889107,1247.144098534016,None,0.7455,1247.445041368017,None,,,,,,,001,001,2022_Mar_16_1537,2-25_cond_decay,2021.2.3,165.0077858527325,
right,0.75,1.0,1,2,0,2,0,2,0,2,0,0,1,1,1,,,,,,,,,,,,,,,1s,1248.4465101240203,1249.4469086208846,1249.4411415818613,None,1250.4402341779787,1251.0934274040628,1250.4402341779787,1251.0934274040628,1251.0880584949628,None,1251.0880584949628,None,space,0.2644963269121945,1251.0880584949628,None,0.6444,1251.366755557945,None,,,,,,,001,001,2022_Mar_16_1537,2-25_cond_decay,2021.2.3,165.0077858527325,
left,0.75,1.0,0,2,0,2,0,2,0,2,0,0,2,2,9,,,,,,,,,,,,,,,1s,1252.3726549290586,1253.373871366959,1253.3682930648793,None,1254.367817230057,1254.5357885339763,1254.367817230057,1254.5357885339763,1254.5303377239034,None,1254.5303377239034,None,space,0.3582260140683502,1254.5303377239034,None,0.162,1254.9002030810807,None,,,,,,,001,001,2022_Mar_16_1537,2-25_cond_decay,2021.2.3,165.0077858527325,
left,0.75,1.0,0,2,0,2,0,2,0,2,0,0,3,3,0,,,,,,,,,,,,,,,1s,1255.901553242933,1256.9013772679027,1256.8946787489112,None,1257.8954807349946,1258.6997769859154,1257.8954807349946,1258.6997769859154,1258.6933620399795,None,1258.6933620399795,None,space,0.2751557610463351,1258.6933620399795,None,0.7967,1258.9910652029794,None,,,,,,,001,001,2022_Mar_16_1537,2-25_cond_decay,2021.2.3,165.0077858527325,
right,1.0,0.75,0,2,0,2,0,2,0,2,0,0,4,4,3,,,,,,,,,,,,,,,1s,1259.9972123010084,1260.9980302629992,1260.992321810918,None,1261.9916163939051,1262.6710634019691,1261.9916163939051,1262.6710634019691,1262.6710634019691,None,1262.6710634019691,None,space,0.28148613101802766,1262.6710634019691,None,0.6761,1262.9659975010436,None,,,,,,,001,001,2022_Mar_16_1537,2-25_cond_decay,2021.2.3,165.0077858527325,
left,0.75,1.0,0,2,0,2,0,2,0,2,0,0,5,5,8,,,,,,,,,,,,,,,1s,1263.9729490359314,1264.9734963290393,1264.96789979795,None,1265.967272107955,1266.458398419898,1265.967272107955,1266.458398419898,1266.4529637689702,None,1266.4529637689702,None,space,0.2835895379539579,1266.4529637689702,None,0.4862,1266.748025294859,None,,,,,,,001,001,2022_Mar_16_1537,2-25_cond_decay,2021.2.3,165.0077858527325,
left,0.75,1.0,0,2,0,2,0,2,0,2,0,0,6,6,2,,,,,,,,,,,,,,,1s,1267.7497764390428,1268.7490552188829,1268.743330247933,None,1269.7435403999407,1270.0646643340588,1269.7435403999407,1270.0646643340588,1270.0646643340588,None,1270.0646643340588,None,space,0.3278176800813526,1270.0646643340588,None,0.3197,1270.4144720290788,None,,,,,,,001,001,2022_Mar_16_1537,2-25_cond_decay,2021.2.3,165.0077858527325,
right,1.0,0.75,0,2,0,2,0,2,0,2,0,0,7,7,6,,,,,,,,,,,,,,,1s,1271.4206019619014,1272.422354422044,1272.4156268988736,None,1273.4164113339502,1274.040165514918,1273.4164113339502,1274.040165514918,1274.040165514918,None,1274.040165514918,None,space,0.27234005904756486,1274.040165514918,None,0.6233,1274.3237822349183,None,,,,,,,001,001,2022_Mar_16_1537,2-25_cond_decay,2021.2.3,165.0077858527325,
left,1.0,0.75,1,2,0,2,0,2,0,2,0,0,8,8,4,,,,,,,,,,,,,,,1s,1275.3295457689092,1276.330677225953,1276.3249042360112,None,1277.3249149820767,1277.8572589829564,1277.3249149820767,1277.8572589829564,1277.8507354739122,None,1277.8507354739122,None,space,0.2618113989010453,1277.8507354739122,None,0.5247,1278.12426594086,None,,,,,,,001,001,2022_Mar_16_1537,2-25_cond_decay,2021.2.3,165.0077858527325,
right,1.0,0.75,0,2,0,2,0,2,0,2,0,0,9,9,5,,,,,,,,,,,,,,,1s,1279.129834170919,1280.131238742033,1280.1255478379317,None,1281.1248948560096,1281.8220201849472,1281.1248948560096,1281.8220201849472,1281.8220201849472,None,1281.8220201849472,None,space,0.2825442971661687,1281.8220201849472,None,0.6953,1282.117586813867,None,,,,,,,001,001,2022_Mar_16_1537,2-25_cond_decay,2021.2.3,165.0077858527325,
left,0.75,1.0,0,2,0,2,0,2,0,2,0,1,0,10,2,,,,,,,,,,,,,,,1s,1283.123179901857,1284.1253732428886,1284.1186274238862,None,1285.1192623390816,1285.8448412579019,1285.1192623390816,1285.8448412579019,1285.8384464599658,None,1285.8384464599658,None,space,0.28211719798855484,1285.8384464599658,None,0.7162,1286.1413473428693,None,,,,,,,001,001,2022_Mar_16_1537,2-25_cond_decay,2021.2.3,165.0077858527325,
left,1.0,0.75,1,2,0,2,0,2,0,2,0,1,1,11,4,,,,,,,,,,,,,,,1s,1287.1435446189716,1288.1430126060732,1288.1374111929908,None,1289.136760972906,1289.8882159478962,1289.136760972906,1289.8882159478962,1289.8828124639113,None,1289.8828124639113,None,space,0.3017733939923346,1289.8828124639113,None,0.7492,1290.1963710840791,None,,,,,,,001,001,2022_Mar_16_1537,2-25_cond_decay,2021.2.3,165.0077858527325,
left,0.75,1.0,0,2,0,2,0,2,0,2,0,1,2,12,8,,,,,,,,,,,,,,,1s,1291.197891880991,1292.197711523855,1292.1919600919355,None,1293.1911170938984,1293.5596776830498,1293.1911170938984,1293.5596776830498,1293.5533526099753,None,1293.5533526099753,None,space,0.367203569971025,1293.5533526099753,None,0.3614,1293.9369576189201,None,,,,,,,001,001,2022_Mar_16_1537,2-25_cond_decay,2021.2.3,165.0077858527325,
left,0.75,1.0,0,2,0,2,0,2,0,2,0,1,3,13,9,,,,,,,,,,,,,,,1s,1294.936972097028,1295.9366645079572,1295.9308611210436,None,1296.930870871991,1297.1485666199587,1296.930870871991,1297.1485666199587,1297.1420364868827,None,1297.1420364868827,None,space,0.39454658585600555,1297.1420364868827,None,0.209,1297.5479053580202,None,,,,,,,001,001,2022_Mar_16_1537,2-25_cond_decay,2021.2.3,165.0077858527325,
right,1.0,0.75,0,2,0,2,0,2,0,2,0,1,4,14,6,,,,,,,,,,,,,,,1s,1298.5541801070794,1299.5547452119645,1299.5490316099022,None,1300.5493993940763,1301.318215585081,1300.5493993940763,1301.318215585081,1301.318215585081,None,1301.318215585081,None,space,0.3303398590069264,1301.318215585081,None,0.7686,1301.6629176689312,None,,,,,,,001,001,2022_Mar_16_1537,2-25_cond_decay,2021.2.3,165.0077858527325,
right,1.0,0.75,0,2,0,2,0,2,0,2,0,1,5,15,3,,,,,,,,,,,,,,,1s,1302.6639543380588,1303.6641887719743,1303.65850727004,None,1304.658321961062,1305.5128722810186,1304.658321961062,1305.5128722810186,1305.5128722810186,None,1305.5128722810186,None,space,0.2876892958302051,1305.5128722810186,None,0.8537,1305.8139440950472,None,,,,,,,001,001,2022_Mar_16_1537,2-25_cond_decay,2021.2.3,165.0077858527325,
right,0.75,1.0,1,2,0,2,0,2,0,2,0,1,6,16,1,,,,,,,,,,,,,,,1s,1306.8153945829254,1307.8158422720153,1307.8090408369899,None,1308.8095930500422,1309.4931742940098,1308.8095930500422,1309.4931742940098,1309.4866702770814,None,1309.4866702770814,None,space,0.27389732003211975,1309.4866702770814,None,0.6767,1309.7722061320674,None,,,,,,,001,001,2022_Mar_16_1537,2-25_cond_decay,2021.2.3,165.0077858527325,
right,1.0,0.75,0,2,0,2,0,2,0,2,0,1,7,17,5,,,,,,,,,,,,,,,1s,1310.7734842319041,1311.773364386987,1311.766500477912,None,1312.7669850029051,1313.227468725061,1312.7669850029051,1313.227468725061,1313.227468725061,None,1313.227468725061,None,space,0.30908294417895377,1313.227468725061,None,0.4591,1313.5470594968647,None,,,,,,,001,001,2022_Mar_16_1537,2-25_cond_decay,2021.2.3,165.0077858527325,
right,1.0,0.75,0,2,0,2,0,2,0,2,0,1,8,18,7,,,,,,,,,,,,,,,1s,1314.54922248004,1315.5489736620802,1315.5421383499634,None,1316.5428305619862,1317.4520133130718,1316.5428305619862,1317.4520133130718,1317.4520133130718,None,1317.4520133130718,None,space,0.3004789629485458,1317.4520133130718,None,0.9089,1317.7659542730544,None,,,,,,,001,001,2022_Mar_16_1537,2-25_cond_decay,2021.2.3,165.0077858527325,
left,0.75,1.0,0,2,0,2,0,2,0,2,0,1,9,19,0,,,,,,,,,,,,,,,1s,1318.7711585299112,1319.773158165859,1319.7671723188832,None,1320.767078725854,1321.3666670310777,1320.767078725854,1321.3666670310777,1321.3612610520795,None,1321.3612610520795,None,space,0.4153030039742589,1321.3612610520795,None,0.5982,1321.7898488668725,None,,,,,,,001,001,2022_Mar_16_1537,2-25_cond_decay,2021.2.3,165.0077858527325,
,,,,2,0,2,0,2,0,2,0,,,,,,,,,,,,,,,,,,,,,,,,,,,,,,,,,,,,,,,,,,,,,001,001,2022_Mar_16_1537,2-25_cond_decay,2021.2.3,165.0077858527325,
left,0.75,1.0,0,2,0,2,0,3,0,3,0,0,0,0,3,,,,,,,,,1322.802212615963,None,1322.802212615963,None,1322.802212615963,None,3s,1323.5415051260497,1324.5425471379422,1324.5369229929056,None,1325.5359677700326,1327.7120997169986,1325.5359677700326,1327.7120997169986,1327.7120997169986,None,1327.7120997169986,None,space,0.4324613360222429,1327.7120997169986,None,2.1732,1328.1658898789901,None,,,,,,,001,001,2022_Mar_16_1537,2-25_cond_decay,2021.2.3,165.0077858527325,
right,1.0,0.75,0,2,0,2,0,3,0,3,0,0,1,1,6,,,,,,,,,,,,,,,3s,1329.171392841963,1330.1726894888561,1330.167041234905,None,1331.1663009510376,1332.354540277971,1331.1663009510376,1332.354540277971,1332.354540277971,None,1332.354540277971,None,space,0.42999237799085677,1332.354540277971,None,1.1859,1332.7957981759682,None,,,,,,,001,001,2022_Mar_16_1537,2-25_cond_decay,2021.2.3,165.0077858527325,
left,0.75,1.0,0,2,0,2,0,3,0,3,0,0,2,2,1,,,,,,,,,,,,,,,3s,1333.8013530489989,1334.802535533905,1334.796455272939,None,1335.7971947218757,1336.1299323108979,1335.7971947218757,1336.1299323108979,1336.124545465922,1337.1237879530527,1336.124545465922,1337.1237879530527,None,,1336.124545465922,1337.1237879530527,0.3297,1337.1411492868792,None,,,,,,,001,001,2022_Mar_16_1537,2-25_cond_decay,2021.2.3,165.0077858527325,
right,1.0,0.75,0,2,0,2,0,3,0,3,0,0,3,3,8,,,,,,,,,,,,,,,3s,1338.1413759409916,1339.1425393109675,1339.135717943078,None,1340.136048435932,1341.741780648008,1340.136048435932,1341.741780648008,1341.741780648008,None,1341.741780648008,None,space,0.32270651194266975,1341.741780648008,None,1.6042,1342.0869762329385,None,,,,,,,001,001,2022_Mar_16_1537,2-25_cond_decay,2021.2.3,165.0077858527325,
right,1.0,0.75,0,2,0,2,0,3,0,3,0,0,4,4,5,,,,,,,,,,,,,,,3s,1343.0874332750682,1344.087231253041,1344.0814912850037,None,1345.0818662019446,1345.8880822609644,1345.0818662019446,1345.8880822609644,1345.8880822609644,None,1345.8880822609644,None,space,0.34443135606124997,1345.8880822609644,None,0.8045,1346.2443787420634,None,,,,,,,001,001,2022_Mar_16_1537,2-25_cond_decay,2021.2.3,165.0077858527325,
left,0.75,1.0,0,2,0,2,0,3,0,3,0,0,5,5,2,,,,,,,,,,,,,,,3s,1347.2496793679893,1348.2512396730017,1348.245516568888,None,1349.2456046498846,1351.26937455195,1349.2456046498846,1351.26937455195,1351.2637691178825,None,1351.2637691178825,None,space,0.4007740190718323,1351.2637691178825,None,2.02,1351.6820054668933,None,,,,,,,001,001,2022_Mar_16_1537,2-25_cond_decay,2021.2.3,165.0077858527325,
left,1.0,0.75,1,2,0,2,0,3,0,3,0,0,6,6,7,,,,,,,,,,,,,,,3s,1352.6815117269289,1353.6818756680004,1353.6749332849868,None,1354.675791644957,1355.9357486299705,1354.675791644957,1355.9357486299705,1355.929119848879,None,1355.929119848879,None,space,0.2714485090691596,1355.929119848879,None,1.2518,1356.2129342290573,None,,,,,,,001,001,2022_Mar_16_1537,2-25_cond_decay,2021.2.3,165.0077858527325,
left,0.75,1.0,0,2,0,2,0,3,0,3,0,0,7,7,4,,,,,,,,,,,,,,,3s,1357.2143073598854,1358.2151321030688,1358.2084049379919,None,1359.2082548779435,1359.8068275600672,1359.2082548779435,1359.8068275600672,1359.801396541996,None,1359.801396541996,None,space,0.44718574709258974,1359.801396541996,None,0.5898,1360.262064418057,None,,,,,,,001,001,2022_Mar_16_1537,2-25_cond_decay,2021.2.3,165.0077858527325,
left,0.75,1.0,0,2,0,2,0,3,0,3,0,0,8,8,9,,,,,,,,,,,,,,,3s,1361.2636503619142,1362.262992016971,1362.257282611914,None,1363.257007254986,1363.6510212318972,1363.257007254986,1363.6510212318972,1363.6510212318972,1364.6513668228872,1363.6510212318972,1364.6513668228872,None,,1363.6510212318972,1364.6513668228872,0.3948,1364.6683915569447,None,,,,,,,001,001,2022_Mar_16_1537,2-25_cond_decay,2021.2.3,165.0077858527325,
right,0.75,1.0,1,2,0,2,0,3,0,3,0,0,9,9,0,,,,,,,,,,,,,,,3s,1365.6680208060425,1366.6690780979116,1366.6633499569725,None,1367.6627779689152,1369.6270374979358,1367.6627779689152,1369.6270374979358,1369.6270374979358,None,1369.6270374979358,None,space,0.30944985803216696,1369.6270374979358,None,1.9612,1369.9590758730192,None,,,,,,,001,001,2022_Mar_16_1537,2-25_cond_decay,2021.2.3,165.0077858527325,
left,0.75,1.0,0,2,0,2,0,3,0,3,0,1,0,10,9,,,,,,,,,,,,,,,3s,1370.9648706540465,1371.965657013934,1371.9598400369287,None,1372.9603503979743,1373.7945375349373,1372.9603503979743,1373.7945375349373,1373.7890358108561,None,1373.7890358108561,None,space,0.3315301248803735,1373.7890358108561,None,0.8269,1374.1350353090093,None,,,,,,,001,001,2022_Mar_16_1537,2-25_cond_decay,2021.2.3,165.0077858527325,
left,0.75,1.0,0,2,0,2,0,3,0,3,0,1,1,11,2,,,,,,,,,,,,,,,3s,1375.1356548999902,1376.1359554589726,1376.1291428089608,None,1377.129729392007,1377.2867028329056,1377.129729392007,1377.2867028329056,1377.2867028329056,None,1377.2867028329056,None,None,,1377.2867028329056,None,0.1558,1378.2978365218733,None,,,,,,,001,001,2022_Mar_16_1537,2-25_cond_decay,2021.2.3,165.0077858527325,
left,0.75,1.0,0,2,0,2,0,3,0,3,0,1,2,12,4,,,,,,,,,,,,,,,3s,1379.292839279864,1380.2931918690447,1380.2875120278914,None,1381.2871508139651,1381.5235767960548,1381.2871508139651,1381.5235767960548,1381.5235767960548,None,1381.5235767960548,None,space,0.38100739987567067,1381.5235767960548,None,0.2344,1381.921898619039,None,,,,,,,001,001,2022_Mar_16_1537,2-25_cond_decay,2021.2.3,165.0077858527325,
left,0.75,1.0,0,2,0,2,0,3,0,3,0,1,3,13,1,,,,,,,,,,,,,,,3s,1382.917033781996,1383.9177900159266,1383.91082493891,None,1384.9116600209381,1385.8986685639247,1384.9116600209381,1385.8986685639247,1385.8986685639247,None,1385.8986685639247,None,space,0.333862615050748,1385.8986685639247,None,0.987,1386.2434310019016,None,,,,,,,001,001,2022_Mar_16_1537,2-25_cond_decay,2021.2.3,165.0077858527325,
right,1.0,0.75,0,2,0,2,0,3,0,3,0,1,4,14,5,,,,,,,,,,,,,,,3s,1387.2490119310096,1388.250166936079,1388.2444189710077,None,1389.244999157032,1390.3655818859115,1389.244999157032,1390.3655818859115,1390.3601117930375,None,1390.3601117930375,None,space,0.31243674410507083,1390.3601117930375,None,1.1161,1390.685961722862,None,,,,,,,001,001,2022_Mar_16_1537,2-25_cond_decay,2021.2.3,165.0077858527325,
right,1.0,0.75,0,2,0,2,0,3,0,3,0,1,5,15,6,,,,,,,,,,,,,,,3s,1391.686998392921,1392.6868239168543,1392.6810709009878,None,1393.6811916399747,1395.650078509003,1393.6811916399747,1395.650078509003,1395.6435974070337,None,1395.6435974070337,None,None,,1395.6435974070337,None,1.959,1396.6550245459657,None,,,,,,,001,001,2022_Mar_16_1537,2-25_cond_decay,2021.2.3,165.0077858527325,
right,0.75,1.0,1,2,0,2,0,3,0,3,0,1,6,16,0,,,,,,,,,,,,,,,3s,1397.6501817689277,1398.6508615100756,1398.6441487420816,None,1399.644121748861,1401.2749682890717,1399.644121748861,1401.2749682890717,1401.2749682890717,None,1401.2749682890717,None,space,0.3416061250027269,1401.2749682890717,None,1.6291,1401.6373956939206,None,,,,,,,001,001,2022_Mar_16_1537,2-25_cond_decay,2021.2.3,165.0077858527325,
right,1.0,0.75,0,2,0,2,0,3,0,3,0,1,7,17,8,,,,,,,,,,,,,,,3s,1402.6388148239348,1403.6379870930687,1403.6322035519406,None,1404.6318859988824,1405.3712280888576,1404.6318859988824,1405.3712280888576,1405.364719393896,None,1405.364719393896,None,space,0.299874474061653,1405.364719393896,None,0.7286,1405.6852997599635,None,,,,,,,001,001,2022_Mar_16_1537,2-25_cond_decay,2021.2.3,165.0077858527325,
right,1.0,0.75,0,2,0,2,0,3,0,3,0,1,8,18,3,,,,,,,,,,,,,,,3s,1406.6870447408874,1407.6866412030067,1407.6810127559584,None,1408.6802726830356,1410.4498178299982,1408.6802726830356,1410.4498178299982,1410.4498178299982,None,1410.4498178299982,None,space,0.2547780438326299,1410.4498178299982,None,1.7712,1410.7157983740326,None,,,,,,,001,001,2022_Mar_16_1537,2-25_cond_decay,2021.2.3,165.0077858527325,
left,1.0,0.75,1,2,0,2,0,3,0,3,0,1,9,19,7,,,,,,,,,,,,,,,3s,1411.7220385258552,1412.722913119942,1412.7171699020546,None,1413.717300672084,1414.5047787879594,1413.717300672084,1414.5047787879594,1414.4980555248912,None,1414.4980555248912,None,space,0.2864508689381182,1414.4980555248912,None,0.7786,1414.8070684680715,None,,,,,,,001,001,2022_Mar_16_1537,2-25_cond_decay,2021.2.3,165.0077858527325,
,,,,2,0,2,0,3,0,3,0,,,,,,,,,,,,,,,,,,,,,,,,,,,,,,,,,,,,,,,,,,,,,001,001,2022_Mar_16_1537,2-25_cond_decay,2021.2.3,165.0077858527325,
,,,,2,0,2,0,,,,,,,,,,,,,,,,,,,,,,,,,,,,,,,,,,,,,,,,,,,1415.8188652859535,None,1415.8188652859535,None,1415.8188652859535,None,001,001,2022_Mar_16_1537,2-25_cond_decay,2021.2.3,165.0077858527325,
left,0.75,1.0,0,3,0,3,0,0,0,0,0,0,0,0,1,,,,,,,,,1420.818597058067,None,1420.818597058067,None,1420.818597058067,None,5s,1422.2911563359667,1423.2930310829543,1423.2799394619651,None,1424.2803825489245,1427.189314194955,1424.2803825489245,1427.189314194955,1427.189314194955,None,1427.189314194955,None,space,0.35517314192838967,1427.189314194955,None,2.9051,1427.5579664139077,None,,,,,,,001,001,2022_Mar_16_1537,2-25_cond_decay,2021.2.3,165.0077858527325,
left,1.0,0.75,1,3,0,3,0,0,0,0,0,0,1,1,3,,,,,,,,,,,,,,,5s,1428.5594502959866,1429.5595267638564,1429.5527627610136,None,1430.5529966040049,1433.6077973248903,1430.5529966040049,1433.6077973248903,1433.6077973248903,None,1433.6077973248903,None,space,0.3127589002251625,1433.6077973248903,None,3.0539,1433.9340829339344,None,,,,,,,001,001,2022_Mar_16_1537,2-25_cond_decay,2021.2.3,165.0077858527325,
left,0.75,1.0,0,3,0,3,0,0,0,0,0,0,2,2,7,,,,,,,,,,,,,,,5s,1434.9349728538655,1435.9345794280525,1435.929010032909,None,1436.9285767169204,1437.777283780044,1436.9285767169204,1437.777283780044,1437.777283780044,None,1437.777283780044,None,space,0.29522584308870137,1437.777283780044,None,0.8477,1438.0846598779317,None,,,,,,,001,001,2022_Mar_16_1537,2-25_cond_decay,2021.2.3,165.0077858527325,
left,0.75,1.0,0,3,0,3,0,0,0,0,0,0,3,3,8,,,,,,,,,,,,,,,5s,1439.0860850519966,1440.0861865039915,1440.0804881660733,None,1441.0805701110512,1445.6193265109323,1441.0805701110512,1445.6193265109323,1445.61394668906,None,1445.61394668906,None,space,0.6266277730464935,1445.61394668906,None,4.5355,1446.256139159901,None,,,,,,,001,001,2022_Mar_16_1537,2-25_cond_decay,2021.2.3,165.0077858527325,
