attn_cue,left_ob,right_ob,congruent,runs.thisRepN,runs.thisTrialN,runs.thisN,runs.thisIndex,blocks.thisRepN,blocks.thisTrialN,blocks.thisN,blocks.thisIndex,trials.thisRepN,trials.thisTrialN,trials.thisN,trials.thisIndex,welcome.started,welcome.stopped,text_2.started,text_2.stopped,init_key_resp.keys,init_key_resp.rt,init_key_resp.started,init_key_resp.stopped,text_3.started,text_3.stopped,text_4.started,text_4.stopped,text_5.started,text_5.stopped,block_num,texter.started,texter.stopped,cross.started,cross.stopped,left_star.started,left_star.stopped,right_star.started,right_star.stopped,left_2.started,left_2.stopped,right_2.started,right_2.stopped,key_resp.keys,key_resp.rt,key_resp.started,key_resp.stopped,Rand Tim,text.started,text.stopped,end.started,end.stopped,text_6.started,text_6.stopped,text_7.started,text_7.stopped,participant,session,date,expName,psychopyVersion,frameRate,
,,,,,,,,,,,,,,,,414.7278069560416,None,414.7278069560416,None,space,5.486898107919842,414.7278069560416,None,,,,,,,,,,,,,,,,,,,,,,,,,,,,,,,,,DEC 025*,001,2022_Dec_02_1338,2-25_cond_decay_EYE-try,2021.2.3,119.23851544313774,
left,0.75,1.0,0,0,0,0,0,0,0,0,0,0,0,0,2,,,,,,,,,420.23644056217745,None,420.23644056217745,None,420.23644056217745,None,5s,424.53005159599707,425.5288408338092,425.5214245398529,None,426.52102045714855,427.83779840217903,426.52102045714855,427.83779840217903,427.83779840217903,None,427.83779840217903,None,space,0.6361096818000078,427.83779840217903,None,1.3132,428.612005838193,None,,,,,,,DEC 025*,001,2022_Dec_02_1338,2-25_cond_decay_EYE-try,2021.2.3,119.23851544313774,
right,0.75,1.0,1,0,0,0,0,0,0,0,0,0,1,1,5,,,,,,,,,,,,,,,5s,429.7026603571139,430.7038660007529,430.68795417482033,None,431.6879346789792,432.3962286650203,431.6879346789792,432.3962286650203,432.3962286650203,None,432.3962286650203,None,space,0.7090311162173748,432.3962286650203,None,0.7037,433.23679933091626,None,,,,,,,DEC 025*,001,2022_Dec_02_1338,2-25_cond_decay_EYE-try,2021.2.3,119.23851544313774,
right,1.0,0.75,0,0,0,0,0,0,0,0,0,0,2,2,7,,,,,,,,,,,,,,,5s,434.321439136751,435.32071626279503,435.312710552942,None,436.3129200958647,437.1460397997871,436.3129200958647,437.1460397997871,437.1460397997871,None,437.1460397997871,None,space,0.43446376314386725,437.1460397997871,None,0.8309,437.70446617808193,None,,,,,,,DEC 025*,001,2022_Dec_02_1338,2-25_cond_decay_EYE-try,2021.2.3,119.23851544313774,
left,1.0,0.75,1,0,0,0,0,0,0,0,0,0,3,3,3,,,,,,,,,,,,,,,5s,438.80306714214385,439.8042772230692,439.7959804767743,None,440.7877793908119,445.4708347157575,440.7877793908119,445.4708347157575,445.4708347157575,None,445.4708347157575,None,space,0.5530094411224127,445.4708347157575,None,4.6764,446.15374034876004,None,,,,,,,DEC 025*,001,2022_Dec_02_1338,2-25_cond_decay_EYE-try,2021.2.3,119.23851544313774,
left,0.75,1.0,0,0,0,0,0,0,0,0,0,0,4,4,9,,,,,,,,,,,,,,,5s,447.2444747760892,448.2461549830623,448.23788001714274,None,449.2384455278516,453.8874568771571,449.2384455278516,453.8874568771571,453.87989134015515,None,453.87989134015515,None,space,0.5188555349595845,453.87989134015515,None,4.6441,454.5282897967845,None,,,,,,,DEC 025*,001,2022_Dec_02_1338,2-25_cond_decay_EYE-try,2021.2.3,119.23851544313774,
left,0.75,1.0,0,0,0,0,0,0,0,0,0,0,5,5,6,,,,,,,,,,,,,,,5s,455.61978005291894,456.6216295850463,456.6125321770087,None,457.61304082209244,460.879490389023,457.61304082209244,460.879490389023,460.879490389023,None,460.879490389023,None,space,0.5522143910638988,460.879490389023,None,3.2655,461.5611872840673,None,,,,,,,DEC 025*,001,2022_Dec_02_1338,2-25_cond_decay_EYE-try,2021.2.3,119.23851544313774,
right,1.0,0.75,0,0,0,0,0,0,0,0,0,0,6,6,1,,,,,,,,,,,,,,,5s,462.6532668750733,463.6548283970915,463.64644086174667,None,464.6461731218733,466.51338461600244,464.6461731218733,466.51338461600244,466.5049268328585,None,466.5049268328585,None,space,0.4170560077764094,466.5049268328585,None,1.8629,467.0456040678546,None,,,,,,,DEC 025*,001,2022_Dec_02_1338,2-25_cond_decay_EYE-try,2021.2.3,119.23851544313774,
right,1.0,0.75,0,0,0,0,0,0,0,0,0,0,7,7,4,,,,,,,,,,,,,,,5s,468.14509042399004,469.14592395117506,469.13847712799907,None,470.1380951027386,470.9043579129502,470.1380951027386,470.9043579129502,470.89685854595155,None,470.89685854595155,None,space,0.42567874770611525,470.89685854595155,None,0.7644,471.45381576102227,None,,,,,,,DEC 025*,001,2022_Dec_02_1338,2-25_cond_decay_EYE-try,2021.2.3,119.23851544313774,
left,0.75,1.0,0,0,0,0,0,0,0,0,0,0,8,8,8,,,,,,,,,,,,,,,5s,472.5452326480299,473.54681651480496,473.538220515009,None,474.538286536932,475.0630571837537,474.538286536932,475.0630571837537,475.05434316117316,None,475.05434316117316,None,space,0.4431204036809504,475.05434316117316,None,0.5214,475.6291568488814,None,,,,,,,DEC 025*,001,2022_Dec_02_1338,2-25_cond_decay_EYE-try,2021.2.3,119.23851544313774,
right,1.0,0.75,0,0,0,0,0,0,0,0,0,0,9,9,0,,,,,,,,,,,,,,,5s,476.72046242514625,477.7210848047398,477.7132120281458,None,478.7135186409578,480.82120479876176,478.7135186409578,480.82120479876176,480.82120479876176,None,480.82120479876176,None,space,0.4595829537138343,480.82120479876176,None,2.106,481.4123257561587,None,,,,,,,DEC 025*,001,2022_Dec_02_1338,2-25_cond_decay_EYE-try,2021.2.3,119.23851544313774,
left,0.75,1.0,0,0,0,0,0,0,0,0,0,1,0,10,2,,,,,,,,,,,,,,,5s,482.50362747488543,483.50489450711757,483.49620708078146,None,484.496202937793,485.6802879748866,484.496202937793,485.6802879748866,485.6802879748866,None,485.6802879748866,None,space,0.3775820038281381,485.6802879748866,None,1.1831,486.18749157106504,None,,,,,,,DEC 025*,001,2022_Dec_02_1338,2-25_cond_decay_EYE-try,2021.2.3,119.23851544313774,
right,1.0,0.75,0,0,0,0,0,0,0,0,0,1,1,11,7,,,,,,,,,,,,,,,5s,487.2532131909393,488.2554617570713,488.2461840189062,None,489.24727875413373,493.48011264717206,489.24727875413373,493.48011264717206,493.47142964508384,None,493.47142964508384,None,space,0.3868143609724939,493.47142964508384,None,4.2253,493.9868214679882,None,,,,,,,DEC 025*,001,2022_Dec_02_1338,2-25_cond_decay_EYE-try,2021.2.3,119.23851544313774,
right,0.75,1.0,1,0,0,0,0,0,0,0,0,1,2,12,5,,,,,,,,,,,,,,,5s,495.0783104430884,496.08005640888587,496.07196450186893,None,497.0718831378035,500.9714915007353,497.0718831378035,500.9714915007353,500.9714915007353,None,500.9714915007353,None,space,0.44436323503032327,500.9714915007353,None,3.8988,501.54568808618933,None,,,,,,,DEC 025*,001,2022_Dec_02_1338,2-25_cond_decay_EYE-try,2021.2.3,119.23851544313774,
left,0.75,1.0,0,0,0,0,0,0,0,0,0,1,3,13,8,,,,,,,,,,,,,,,5s,502.64588763099164,503.64633654104546,503.63035259302706,None,504.62981542618945,506.5383387231268,504.62981542618945,506.5383387231268,506.5383387231268,None,506.5383387231268,None,space,0.4950218331068754,506.5383387231268,None,1.9037,507.1618610690348,None,,,,,,,DEC 025*,001,2022_Dec_02_1338,2-25_cond_decay_EYE-try,2021.2.3,119.23851544313774,
left,0.75,1.0,0,0,0,0,0,0,0,0,0,1,4,14,6,,,,,,,,,,,,,,,5s,508.24746786477044,509.24707507295534,509.23888058774173,None,510.23825067514554,514.0635119169019,510.23825067514554,514.0635119169019,514.0635119169019,None,514.0635119169019,None,space,0.4759798306040466,514.0635119169019,None,3.8202,514.6642259159125,None,,,,,,,DEC 025*,001,2022_Dec_02_1338,2-25_cond_decay_EYE-try,2021.2.3,119.23851544313774,
right,1.0,0.75,0,0,0,0,0,0,0,0,0,1,5,15,4,,,,,,,,,,,,,,,5s,515.7627200889401,516.7639722260647,516.7554584001191,None,517.7557931561023,518.9305383171886,517.7557931561023,518.9305383171886,518.9219533340074,None,518.9219533340074,None,space,0.40013187285512686,518.9219533340074,None,1.1687,519.4471466029063,None,,,,,,,DEC 025*,001,2022_Dec_02_1338,2-25_cond_decay_EYE-try,2021.2.3,119.23851544313774,
right,1.0,0.75,0,0,0,0,0,0,0,0,0,1,6,16,1,,,,,,,,,,,,,,,5s,520.5120551320724,521.5138970850967,521.505804438144,None,522.5054591191001,525.321742916014,522.5054591191001,525.321742916014,525.3140731649473,None,525.3140731649473,None,space,0.3836438609287143,525.3140731649473,None,2.8102,525.8222276167944,None,,,,,,,DEC 025*,001,2022_Dec_02_1338,2-25_cond_decay_EYE-try,2021.2.3,119.23851544313774,
left,0.75,1.0,0,0,0,0,0,0,0,0,0,1,7,17,9,,,,,,,,,,,,,,,5s,526.921020318754,527.9216881790198,527.9135983628221,None,528.9137024218217,532.113950653933,528.9137024218217,532.113950653933,532.1054190518335,None,532.1054190518335,None,space,0.3927874439395964,532.1054190518335,None,3.1944,532.6292927931063,None,,,,,,,DEC 025*,001,2022_Dec_02_1338,2-25_cond_decay_EYE-try,2021.2.3,119.23851544313774,
right,1.0,0.75,0,0,0,0,0,0,0,0,0,1,8,18,0,,,,,,,,,,,,,,,5s,533.7225862601772,534.721628294792,534.7133652521297,None,535.7142210998572,539.6471049129032,535.7142210998572,539.6471049129032,539.6471049129032,None,539.6471049129032,None,space,0.35289105912670493,539.6471049129032,None,3.9322,540.1293570897542,None,,,,,,,DEC 025*,001,2022_Dec_02_1338,2-25_cond_decay_EYE-try,2021.2.3,119.23851544313774,
left,1.0,0.75,1,0,0,0,0,0,0,0,0,1,9,19,3,,,,,,,,,,,,,,,5s,541.2206630511209,542.2229178170674,542.2143747569062,None,543.2056979327463,547.0635441830382,543.2056979327463,547.0635441830382,547.0635441830382,None,547.0635441830382,None,space,0.4598668930120766,547.0635441830382,None,3.8528,547.6544434451498,None,,,,,,,DEC 025*,001,2022_Dec_02_1338,2-25_cond_decay_EYE-try,2021.2.3,119.23851544313774,
,,,,0,0,0,0,0,0,0,0,,,,,,,,,,,,,,,,,,,,,,,,,,,,,,,,,,,,,,,,,,,,,DEC 025*,001,2022_Dec_02_1338,2-25_cond_decay_EYE-try,2021.2.3,119.23851544313774,
right,1.0,0.75,0,0,0,0,0,1,0,1,0,0,0,0,5,,,,,,,,,548.5463873967528,None,548.5463873967528,None,548.5463873967528,None,3s,550.8381564128213,551.8391081918962,551.8306966079399,None,552.83076561708,554.7062880787998,552.83076561708,554.7062880787998,554.6973697501235,None,554.6973697501235,None,space,0.48649768298491836,554.6973697501235,None,1.8727,555.3124686609954,None,,,,,,,DEC 025*,001,2022_Dec_02_1338,2-25_cond_decay_EYE-try,2021.2.3,119.23851544313774,
left,0.75,1.0,0,0,0,0,0,1,0,1,0,0,1,1,9,,,,,,,,,,,,,,,3s,556.4040009989403,557.4054629248567,557.3979972070083,None,558.3970713661984,560.1142482720315,558.3970713661984,560.1142482720315,560.1142482720315,None,560.1142482720315,None,space,0.40056314319372177,560.1142482720315,None,1.7109,560.6390416920185,None,,,,,,,DEC 025*,001,2022_Dec_02_1338,2-25_cond_decay_EYE-try,2021.2.3,119.23851544313774,
right,1.0,0.75,0,0,0,0,0,1,0,1,0,0,2,2,1,,,,,,,,,,,,,,,3s,561.7464885497466,562.7471785591915,562.7313163769431,None,563.7303476561792,566.0641722790897,563.7303476561792,566.0641722790897,566.0641722790897,None,566.0641722790897,None,space,0.4010240472853184,566.0641722790897,None,2.3309,566.5964124519378,None,,,,,,,DEC 025*,001,2022_Dec_02_1338,2-25_cond_decay_EYE-try,2021.2.3,119.23851544313774,
right,1.0,0.75,0,0,0,0,0,1,0,1,0,0,3,3,8,,,,,,,,,,,,,,,3s,567.6877053771168,568.6895456211641,568.6813098778948,None,569.6812935071066,571.0802960200235,569.6812935071066,571.0802960200235,571.0802960200235,None,571.0802960200235,None,space,0.4617223679088056,571.0802960200235,None,1.3983,571.6712897028774,None,,,,,,,DEC 025*,001,2022_Dec_02_1338,2-25_cond_decay_EYE-try,2021.2.3,119.23851544313774,
left,1.0,0.75,1,0,0,0,0,1,0,1,0,0,4,4,7,,,,,,,,,,,,,,,3s,572.7634996017441,573.7647189628333,573.747470443137,None,574.7559735118411,575.2976178731769,574.7559735118411,575.2976178731769,575.2890293621458,None,575.2890293621458,None,space,0.7438742853701115,575.2890293621458,None,0.5388,576.1634513568133,None,,,,,,,DEC 025*,001,2022_Dec_02_1338,2-25_cond_decay_EYE-try,2021.2.3,119.23851544313774,
left,0.75,1.0,0,0,0,0,0,1,0,1,0,0,5,5,2,,,,,,,,,,,,,,,3s,577.2472697747871,578.2473941659555,578.2392305578105,None,579.2391700758599,580.9562650141306,579.2391700758599,580.9562650141306,580.9562650141306,None,580.9562650141306,None,space,0.41854484425857663,580.9562650141306,None,1.7124,581.5049383128062,None,,,,,,,DEC 025*,001,2022_Dec_02_1338,2-25_cond_decay_EYE-try,2021.2.3,119.23851544313774,
left,0.75,1.0,0,0,0,0,0,1,0,1,0,0,6,6,6,,,,,,,,,,,,,,,3s,582.5960694300011,583.5981490081176,583.5899484269321,None,584.5890268287621,586.7059964640066,584.5890268287621,586.7059964640066,586.7059964640066,None,586.7059964640066,None,space,0.4113336009904742,586.7059964640066,None,2.1178,587.246470685117,None,,,,,,,DEC 025*,001,2022_Dec_02_1338,2-25_cond_decay_EYE-try,2021.2.3,119.23851544313774,
right,1.0,0.75,0,0,0,0,0,1,0,1,0,0,7,7,3,,,,,,,,,,,,,,,3s,588.345958571881,589.3482229588553,589.3389109051786,None,590.3399105379358,591.9899236289784,590.3399105379358,591.9899236289784,591.98131870199,None,591.98131870199,None,space,0.4354781727306545,591.98131870199,None,1.6432,592.5466600949876,None,,,,,,,DEC 025*,001,2022_Dec_02_1338,2-25_cond_decay_EYE-try,2021.2.3,119.23851544313774,
left,0.75,1.0,0,0,0,0,0,1,0,1,0,0,8,8,4,,,,,,,,,,,,,,,3s,593.6383660701104,594.6399603760801,594.6316257100552,None,595.6308572608978,597.6809289539233,595.6308572608978,597.6809289539233,597.6809289539233,None,597.6809289539233,None,space,0.3361512110568583,597.6809289539233,None,2.0465,598.14707618393,None,,,,,,,DEC 025*,001,2022_Dec_02_1338,2-25_cond_decay_EYE-try,2021.2.3,119.23851544313774,
right,1.0,0.75,0,0,0,0,0,1,0,1,0,0,9,9,0,,,,,,,,,,,,,,,3s,599.2384566161782,600.2400326877832,600.2225403008051,None,601.2233645487577,601.3896499960683,601.2233645487577,601.3896499960683,601.3896499960683,None,601.3896499960683,None,space,0.4922415716573596,601.3896499960683,None,0.1625,602.0138348401524,None,,,,,,,DEC 025*,001,2022_Dec_02_1338,2-25_cond_decay_EYE-try,2021.2.3,119.23851544313774,
left,0.75,1.0,0,0,0,0,0,1,0,1,0,1,0,10,2,,,,,,,,,,,,,,,3s,603.1047810357995,604.106438065879,604.0979973920621,None,605.0978895267472,605.6566242957488,605.0978895267472,605.6566242957488,605.6566242957488,None,605.6566242957488,None,space,0.4775026417337358,605.6566242957488,None,0.558,606.2634542919695,None,,,,,,,DEC 025*,001,2022_Dec_02_1338,2-25_cond_decay_EYE-try,2021.2.3,119.23851544313774,
left,1.0,0.75,1,0,0,0,0,1,0,1,0,1,1,11,7,,,,,,,,,,,,,,,3s,607.3550041210838,608.3558385297656,608.3476496199146,None,609.3480470408686,609.5307559687644,609.3480470408686,609.5307559687644,609.522478341125,None,609.522478341125,None,space,0.6362941148690879,609.522478341125,None,0.1787,610.2883913451806,None,,,,,,,DEC 025*,001,2022_Dec_02_1338,2-25_cond_decay_EYE-try,2021.2.3,119.23851544313774,
right,1.0,0.75,0,0,0,0,0,1,0,1,0,1,2,12,0,,,,,,,,,,,,,,,3s,611.3804217898287,612.3813251340762,612.3729161708616,None,613.3729883171618,614.9818897801451,613.3729883171618,614.9818897801451,614.9818897801451,None,614.9818897801451,None,space,0.3939167750068009,614.9818897801451,None,1.6064,615.5047983261757,None,,,,,,,DEC 025*,001,2022_Dec_02_1338,2-25_cond_decay_EYE-try,2021.2.3,119.23851544313774,
left,0.75,1.0,0,0,0,0,0,1,0,1,0,1,3,13,4,,,,,,,,,,,,,,,3s,616.5971762081608,617.5978194307536,617.581210245844,None,618.5817597280256,621.5482977819629,618.5817597280256,621.5482977819629,621.5482977819629,None,621.5482977819629,None,space,0.5171403707936406,621.5482977819629,None,2.9649,622.1972999237478,None,,,,,,,DEC 025*,001,2022_Dec_02_1338,2-25_cond_decay_EYE-try,2021.2.3,119.23851544313774,
left,0.75,1.0,0,0,0,0,0,1,0,1,0,1,4,14,9,,,,,,,,,,,,,,,3s,623.2884218539111,624.2899254187942,624.281959767919,None,625.2814072128385,626.5313122058287,625.2814072128385,626.5313122058287,626.5237634717487,None,626.5237634717487,None,space,0.4438944421708584,626.5237634717487,None,1.2463,627.0974512747489,None,,,,,,,DEC 025*,001,2022_Dec_02_1338,2-25_cond_decay_EYE-try,2021.2.3,119.23851544313774,
right,1.0,0.75,0,0,0,0,0,1,0,1,0,1,5,15,1,,,,,,,,,,,,,,,3s,628.1883645318449,629.1895354441367,629.1814117128961,None,630.1810318860225,633.0314578590915,630.1810318860225,633.0314578590915,633.0314578590915,None,633.0314578590915,None,space,0.4254844933748245,633.0314578590915,None,2.8492,633.5812552399002,None,,,,,,,DEC 025*,001,2022_Dec_02_1338,2-25_cond_decay_EYE-try,2021.2.3,119.23851544313774,
left,0.75,1.0,0,0,0,0,0,1,0,1,0,1,6,16,6,,,,,,,,,,,,,,,3s,634.6805632421747,635.6821651021019,635.6734802578576,None,636.6733535728417,638.1736850659363,636.6733535728417,638.1736850659363,638.1647254899144,None,638.1647254899144,None,space,0.5420406279154122,638.1647254899144,None,1.4926,638.8318386501633,None,,,,,,,DEC 025*,001,2022_Dec_02_1338,2-25_cond_decay_EYE-try,2021.2.3,119.23851544313774,
right,1.0,0.75,0,0,0,0,0,1,0,1,0,1,7,17,3,,,,,,,,,,,,,,,3s,639.930280384142,640.9314917847514,640.9233457739465,None,641.92351605976,643.5395344090648,641.92351605976,643.5395344090648,643.5395344090648,None,643.5395344090648,None,space,0.3944101147353649,643.5395344090648,None,1.6131,644.0638531651348,None,,,,,,,DEC 025*,001,2022_Dec_02_1338,2-25_cond_decay_EYE-try,2021.2.3,119.23851544313774,
right,0.75,1.0,1,0,0,0,0,1,0,1,0,1,8,18,5,,,,,,,,,,,,,,,3s,645.1489704558626,646.1485179630108,646.1403509788215,None,647.1404495518655,647.9230944188312,647.1404495518655,647.9230944188312,647.9155446658842,None,647.9155446658842,None,space,0.558318167924881,647.9155446658842,None,0.7765,648.599050139077,None,,,,,,,DEC 025*,001,2022_Dec_02_1338,2-25_cond_decay_EYE-try,2021.2.3,119.23851544313774,
right,1.0,0.75,0,0,0,0,0,1,0,1,0,1,9,19,8,,,,,,,,,,,,,,,3s,649.6976055768318,650.6982921841554,650.6902712029405,None,651.6897841421887,653.9649792001583,651.6897841421887,653.9649792001583,653.9572737589478,None,653.9572737589478,None,space,0.44341114070266485,653.9572737589478,None,2.2724,654.5310098938644,None,,,,,,,DEC 025*,001,2022_Dec_02_1338,2-25_cond_decay_EYE-try,2021.2.3,119.23851544313774,
,,,,0,0,0,0,1,0,1,0,,,,,,,,,,,,,,,,,,,,,,,,,,,,,,,,,,,,,,,,,,,,,DEC 025*,001,2022_Dec_02_1338,2-25_cond_decay_EYE-try,2021.2.3,119.23851544313774,
right,1.0,0.75,0,0,0,0,0,2,0,2,0,0,0,0,4,,,,,,,,,655.4218349670991,None,655.4218349670991,None,655.4218349670991,None,10s,657.2726245219819,658.2732388209552,658.2650570347905,None,659.2654429948889,661.5149144381285,659.2654429948889,661.5149144381285,661.5149144381285,None,661.5149144381285,None,space,0.5347362770698965,661.5149144381285,None,2.248,662.1803628518246,None,,,,,,,DEC 025*,001,2022_Dec_02_1338,2-25_cond_decay_EYE-try,2021.2.3,119.23851544313774,
right,1.0,0.75,0,0,0,0,0,2,0,2,0,0,1,1,8,,,,,,,,,,,,,,,10s,663.2728894678876,664.2731463229284,664.2648622160777,None,665.265289154835,674.9658796219155,665.265289154835,674.9658796219155,674.9658796219155,None,674.9658796219155,None,space,0.5169558669440448,674.9658796219155,None,9.7006,675.6139279818162,None,,,,,,,DEC 025*,001,2022_Dec_02_1338,2-25_cond_decay_EYE-try,2021.2.3,119.23851544313774,
left,0.75,1.0,0,0,0,0,0,2,0,2,0,0,2,2,3,,,,,,,,,,,,,,,10s,676.7056400547735,677.7070538401604,677.699146843981,None,678.6989614269696,681.1818877011538,678.6989614269696,681.1818877011538,681.1818877011538,None,681.1818877011538,None,space,0.458718768786639,681.1818877011538,None,2.4814,681.7660454148427,None,,,,,,,DEC 025*,001,2022_Dec_02_1338,2-25_cond_decay_EYE-try,2021.2.3,119.23851544313774,
right,1.0,0.75,0,0,0,0,0,2,0,2,0,0,3,3,9,,,,,,,,,,,,,,,10s,682.8647826020606,683.86489711795,683.8490293468349,None,684.8486990109086,688.5077826809138,684.8486990109086,688.5077826809138,688.5077826809138,None,688.5077826809138,None,space,0.8600688981823623,688.5077826809138,None,3.6573,689.4977121879347,None,,,,,,,DEC 025*,001,2022_Dec_02_1338,2-25_cond_decay_EYE-try,2021.2.3,119.23851544313774,
left,0.75,1.0,0,0,0,0,0,2,0,2,0,0,4,4,5,,,,,,,,,,,,,,,10s,690.5894354167394,691.5909743281081,691.5827166307718,None,692.5826995437965,695.0659430618398,692.5826995437965,695.0659430618398,695.0571840968914,None,695.0571840968914,None,space,0.4339751759544015,695.0571840968914,None,2.4774,695.6153055480681,None,,,,,,,DEC 025*,001,2022_Dec_02_1338,2-25_cond_decay_EYE-try,2021.2.3,119.23851544313774,
right,1.0,0.75,0,0,0,0,0,2,0,2,0,0,5,5,0,,,,,,,,,,,,,,,10s,696.722832230851,697.7238529748283,697.7078218967654,None,698.7069207117893,706.2245877818204,698.7069207117893,706.2245877818204,706.2245877818204,None,706.2245877818204,None,space,0.5099660432897508,706.2245877818204,None,7.518,706.8648038469255,None,,,,,,,DEC 025*,001,2022_Dec_02_1338,2-25_cond_decay_EYE-try,2021.2.3,119.23851544313774,
right,1.0,0.75,0,0,0,0,0,2,0,2,0,0,6,6,6,,,,,,,,,,,,,,,10s,707.9565422190353,708.957138644997,708.9487489671446,None,709.9496890539303,714.4243380678818,709.9496890539303,714.4243380678818,714.4243380678818,None,714.4243380678818,None,space,0.466662066988647,714.4243380678818,None,4.4731,715.0158762219362,None,,,,,,,DEC 025*,001,2022_Dec_02_1338,2-25_cond_decay_EYE-try,2021.2.3,119.23851544313774,
right,0.75,1.0,1,0,0,0,0,2,0,2,0,0,7,7,1,,,,,,,,,,,,,,,10s,716.1145470980555,717.1163854938932,717.1071247109212,None,718.1074062450789,720.9323383867741,718.1074062450789,720.9323383867741,720.9323383867741,None,720.9323383867741,None,space,0.7940233130939305,720.9323383867741,None,2.82,721.8557568429969,None,,,,,,,DEC 025*,001,2022_Dec_02_1338,2-25_cond_decay_EYE-try,2021.2.3,119.23851544313774,
left,0.75,1.0,0,0,0,0,0,2,0,2,0,0,8,8,2,,,,,,,,,,,,,,,10s,722.9480457999744,723.9498503571376,723.9411711399443,None,724.9411919019185,726.2324263481423,724.9411919019185,726.2324263481423,726.2324263481423,None,726.2324263481423,None,space,0.4674771185964346,726.2324263481423,None,1.2897,726.824642595835,None,,,,,,,DEC 025*,001,2022_Dec_02_1338,2-25_cond_decay_EYE-try,2021.2.3,119.23851544313774,
left,0.75,1.0,0,0,0,0,0,2,0,2,0,0,9,9,7,,,,,,,,,,,,,,,10s,727.9235566169955,728.9239032608457,728.9157869489864,None,729.916533946991,732.1665684841573,729.916533946991,732.1665684841573,732.1577584878542,None,732.1577584878542,None,space,0.4271895280107856,732.1577584878542,None,2.2458,732.714314268902,None,,,,,,,DEC 025*,001,2022_Dec_02_1338,2-25_cond_decay_EYE-try,2021.2.3,119.23851544313774,
left,0.75,1.0,0,0,0,0,0,2,0,2,0,1,0,10,3,,,,,,,,,,,,,,,10s,733.8068949468434,734.8072695541196,734.7993128737435,None,735.7990505420603,740.2579614100978,735.7990505420603,740.2579614100978,740.2491730907932,None,740.2491730907932,None,space,0.40055987471714616,740.2491730907932,None,4.4516,740.7741158129647,None,,,,,,,DEC 025*,001,2022_Dec_02_1338,2-25_cond_decay_EYE-try,2021.2.3,119.23851544313774,
right,1.0,0.75,0,0,0,0,0,2,0,2,0,1,1,11,0,,,,,,,,,,,,,,,10s,741.873161660973,742.8745913170278,742.8665959308855,None,743.8658343190327,750.4741060947999,743.8658343190327,750.4741060947999,750.4741060947999,None,750.4741060947999,None,space,0.5030646389350295,750.4741060947999,None,6.6083,751.1067806207575,None,,,,,,,DEC 025*,001,2022_Dec_02_1338,2-25_cond_decay_EYE-try,2021.2.3,119.23851544313774,
left,0.75,1.0,0,0,0,0,0,2,0,2,0,1,2,12,7,,,,,,,,,,,,,,,10s,752.1983844600618,753.1994708278216,753.1915727718733,None,754.1908434429206,762.3000674759969,754.1908434429206,762.3000674759969,762.2914378941059,None,762.2914378941059,None,space,0.5583397205919027,762.2914378941059,None,8.1065,762.975027281791,None,,,,,,,DEC 025*,001,2022_Dec_02_1338,2-25_cond_decay_EYE-try,2021.2.3,119.23851544313774,
right,1.0,0.75,0,0,0,0,0,2,0,2,0,1,3,13,8,,,,,,,,,,,,,,,10s,764.0735706961714,765.075101329945,765.0668518431485,None,766.0577878188342,772.4328824877739,766.0577878188342,772.4328824877739,772.4328824877739,None,772.4328824877739,None,space,0.5535014206543565,772.4328824877739,None,6.3716,773.1153795351274,None,,,,,,,DEC 025*,001,2022_Dec_02_1338,2-25_cond_decay_EYE-try,2021.2.3,119.23851544313774,
left,0.75,1.0,0,0,0,0,0,2,0,2,0,1,4,14,2,,,,,,,,,,,,,,,10s,774.1744065238163,775.1743295099586,775.1668147719465,None,776.1661047488451,782.1078148740344,776.1661047488451,782.1078148740344,782.1078148740344,None,782.1078148740344,None,space,0.5094316899776459,782.1078148740344,None,5.9392,782.7413259251043,None,,,,,,,DEC 025*,001,2022_Dec_02_1338,2-25_cond_decay_EYE-try,2021.2.3,119.23851544313774,
left,1.0,0.75,1,0,0,0,0,2,0,2,0,1,5,15,4,,,,,,,,,,,,,,,10s,783.832898914814,784.8329829950817,784.8245933959261,None,785.8246713448316,795.6839458448812,785.8246713448316,795.6839458448812,795.6839458448812,None,795.6839458448812,None,space,0.6520346058532596,795.6839458448812,None,9.8554,796.4652812359855,None,,,,,,,DEC 025*,001,2022_Dec_02_1338,2-25_cond_decay_EYE-try,2021.2.3,119.23851544313774,
right,1.0,0.75,0,0,0,0,0,2,0,2,0,1,6,16,6,,,,,,,,,,,,,,,10s,797.557579643093,798.5587059338577,798.5416332590394,None,799.5422711190768,807.8334576748312,799.5422711190768,807.8334576748312,807.8334576748312,None,807.8334576748312,None,space,0.7445808066986501,807.8334576748312,None,8.2846,808.7072789510712,None,,,,,,,DEC 025*,001,2022_Dec_02_1338,2-25_cond_decay_EYE-try,2021.2.3,119.23851544313774,
right,1.0,0.75,0,0,0,0,0,2,0,2,0,1,7,17,9,,,,,,,,,,,,,,,10s,809.7991797649302,810.800727351103,810.7922180779278,None,811.7830277248286,820.1174147170968,811.7830277248286,820.1174147170968,820.1174147170968,None,820.1174147170968,None,space,0.4025922203436494,820.1174147170968,None,8.3317,820.6492016729899,None,,,,,,,DEC 025*,001,2022_Dec_02_1338,2-25_cond_decay_EYE-try,2021.2.3,119.23851544313774,
right,0.75,1.0,1,0,0,0,0,2,0,2,0,1,8,18,1,,,,,,,,,,,,,,,10s,821.741153486073,822.7421216350049,822.7330509070307,None,823.7338926000521,832.6921760751866,823.7338926000521,832.6921760751866,832.6921760751866,None,832.6921760751866,None,space,0.5946757919155061,832.6921760751866,None,8.9591,833.4157073311508,None,,,,,,,DEC 025*,001,2022_Dec_02_1338,2-25_cond_decay_EYE-try,2021.2.3,119.23851544313774,
left,0.75,1.0,0,0,0,0,0,2,0,2,0,1,9,19,5,,,,,,,,,,,,,,,10s,834.5073323650286,835.5081987157464,835.5002366797999,None,836.5008289469406,841.5670899590477,836.5008289469406,841.5670899590477,841.5670899590477,None,841.5670899590477,None,None,,841.5670899590477,None,5.0639,842.6997989709489,None,,,,,,,DEC 025*,001,2022_Dec_02_1338,2-25_cond_decay_EYE-try,2021.2.3,119.23851544313774,
,,,,0,0,0,0,2,0,2,0,,,,,,,,,,,,,,,,,,,,,,,,,,,,,,,,,,,,,,,,,,,,,DEC 025*,001,2022_Dec_02_1338,2-25_cond_decay_EYE-try,2021.2.3,119.23851544313774,
right,1.0,0.75,0,0,0,0,0,3,0,3,0,0,0,0,4,,,,,,,,,843.5824774759822,None,843.5824774759822,None,843.5824774759822,None,1s,846.7572353351861,847.7588635990396,847.7509284038097,None,848.7506256159395,849.4500409099273,848.7506256159395,849.4500409099273,849.4500409099273,None,849.4500409099273,None,space,0.5029464587569237,849.4500409099273,None,0.7003,850.0826518218964,None,,,,,,,DEC 025*,001,2022_Dec_02_1338,2-25_cond_decay_EYE-try,2021.2.3,119.23851544313774,
left,0.75,1.0,0,0,0,0,0,3,0,3,0,0,1,1,0,,,,,,,,,,,,,,,1s,851.1740213581361,852.1761928847991,852.1670048981905,None,853.1668209470809,853.8835906567983,853.1668209470809,853.8835906567983,853.875954926014,None,853.875954926014,None,space,0.35047055687755346,853.875954926014,None,0.7105,854.3511156141758,None,,,,,,,DEC 025*,001,2022_Dec_02_1338,2-25_cond_decay_EYE-try,2021.2.3,119.23851544313774,
left,1.0,0.75,1,0,0,0,0,3,0,3,0,0,2,2,5,,,,,,,,,,,,,,,1s,855.4410083028488,856.4424681910314,856.4335251557641,None,857.433505226858,858.0506624127738,857.433505226858,858.0506624127738,858.0506624127738,None,858.0506624127738,None,space,0.4439306170679629,858.0506624127738,None,0.6175,858.6238888590597,None,,,,,,,DEC 025*,001,2022_Dec_02_1338,2-25_cond_decay_EYE-try,2021.2.3,119.23851544313774,
left,0.75,1.0,0,0,0,0,0,3,0,3,0,0,3,3,8,,,,,,,,,,,,,,,1s,859.716099973768,860.7173535781913,860.7091177189723,None,861.7095743371174,862.2090586009435,861.7095743371174,862.2090586009435,862.2003032881767,None,862.2003032881767,None,space,0.3925352687947452,862.2003032881767,None,0.4956,862.7249973118305,None,,,,,,,DEC 025*,001,2022_Dec_02_1338,2-25_cond_decay_EYE-try,2021.2.3,119.23851544313774,
right,1.0,0.75,0,0,0,0,0,3,0,3,0,0,4,4,7,,,,,,,,,,,,,,,1s,863.7907778550871,864.7929654070176,864.7756961141713,None,865.7758898250759,866.133659414947,865.7758898250759,866.133659414947,866.133659414947,None,866.133659414947,None,space,0.4113532858900726,866.133659414947,None,0.3569,866.6741113117896,None,,,,,,,DEC 025*,001,2022_Dec_02_1338,2-25_cond_decay_EYE-try,2021.2.3,119.23851544313774,
right,0.75,1.0,1,0,0,0,0,3,0,3,0,0,5,5,9,,,,,,,,,,,,,,,1s,867.7589414380491,868.7587290019728,868.7505748928525,None,869.7506963531487,870.4006905541755,869.7506963531487,870.4006905541755,870.4006905541755,None,870.4006905541755,None,space,0.35229292092844844,870.4006905541755,None,0.6494,870.8826116141863,None,,,,,,,DEC 025*,001,2022_Dec_02_1338,2-25_cond_decay_EYE-try,2021.2.3,119.23851544313774,
right,1.0,0.75,0,0,0,0,0,3,0,3,0,0,6,6,1,,,,,,,,,,,,,,,1s,871.97497233795,872.9761891481467,872.967763024848,None,873.967333892826,874.6008247919381,873.967333892826,874.6008247919381,874.6008247919381,None,874.6008247919381,None,space,0.4011833290569484,874.6008247919381,None,0.6338,875.1323882639408,None,,,,,,,DEC 025*,001,2022_Dec_02_1338,2-25_cond_decay_EYE-try,2021.2.3,119.23851544313774,
right,1.0,0.75,0,0,0,0,0,3,0,3,0,0,7,7,6,,,,,,,,,,,,,,,1s,876.2245025620796,877.2257176097482,877.2175234300084,None,878.2176960669458,879.1507819597609,878.2176960669458,879.1507819597609,879.1423908649012,None,879.1423908649012,None,space,0.36144394520670176,879.1423908649012,None,0.9282,879.633477224037,None,,,,,,,DEC 025*,001,2022_Dec_02_1338,2-25_cond_decay_EYE-try,2021.2.3,119.23851544313774,
left,0.75,1.0,0,0,0,0,0,3,0,3,0,0,8,8,3,,,,,,,,,,,,,,,1s,880.7251063189469,881.7255772389472,881.7171639627777,None,882.7176620778628,883.5004650959745,882.7176620778628,883.5004650959745,883.4929837621748,None,883.4929837621748,None,space,0.5006737280637026,883.4929837621748,None,0.7784,884.1243014880456,None,,,,,,,DEC 025*,001,2022_Dec_02_1338,2-25_cond_decay_EYE-try,2021.2.3,119.23851544313774,
right,1.0,0.75,0,0,0,0,0,3,0,3,0,0,9,9,2,,,,,,,,,,,,,,,1s,885.2245428287424,886.2255106861703,886.2172725298442,None,887.2177960448898,887.8505034828559,887.2177960448898,887.8505034828559,887.8428198839538,None,887.8428198839538,None,space,0.3923831661231816,887.8428198839538,None,0.6275,888.3591550630517,None,,,,,,,DEC 025*,001,2022_Dec_02_1338,2-25_cond_decay_EYE-try,2021.2.3,119.23851544313774,
right,1.0,0.75,0,0,0,0,0,3,0,3,0,1,0,10,6,,,,,,,,,,,,,,,1s,889.4579559220001,890.4595234678127,890.4504903429188,None,891.4510327139869,891.6592686758377,891.4510327139869,891.6592686758377,891.6592686758377,None,891.6592686758377,None,space,0.47750983480364084,891.6592686758377,None,0.2089,892.2665501781739,None,,,,,,,DEC 025*,001,2022_Dec_02_1338,2-25_cond_decay_EYE-try,2021.2.3,119.23851544313774,
left,0.75,1.0,0,0,0,0,0,3,0,3,0,1,1,11,4,,,,,,,,,,,,,,,1s,893.3579317168333,894.3589160889387,894.3516074828804,None,895.3512406111695,895.8594787139446,895.3512406111695,895.8594787139446,895.8594787139446,None,895.8594787139446,None,space,0.33387854462489486,895.8594787139446,None,0.5087,896.3251302680001,None,,,,,,,DEC 025*,001,2022_Dec_02_1338,2-25_cond_decay_EYE-try,2021.2.3,119.23851544313774,
left,0.75,1.0,0,0,0,0,0,3,0,3,0,1,2,12,8,,,,,,,,,,,,,,,1s,897.4166579940356,898.4182431749068,898.4092186558992,None,899.4089419180527,900.4006496127695,899.4089419180527,900.4006496127695,900.3931824108586,None,900.3931824108586,None,space,0.31064463406801224,900.3931824108586,None,0.9863,900.8327994197607,None,,,,,,,DEC 025*,001,2022_Dec_02_1338,2-25_cond_decay_EYE-try,2021.2.3,119.23851544313774,
left,0.75,1.0,0,0,0,0,0,3,0,3,0,1,3,13,3,,,,,,,,,,,,,,,1s,901.9243836360984,902.9263332220726,902.9179115341976,None,903.9173598010093,904.6091341921128,903.9173598010093,904.6091341921128,904.6091341921128,None,904.6091341921128,None,space,0.3765910090878606,904.6091341921128,None,0.6927,905.1168385520577,None,,,,,,,DEC 025*,001,2022_Dec_02_1338,2-25_cond_decay_EYE-try,2021.2.3,119.23851544313774,
left,1.0,0.75,1,0,0,0,0,3,0,3,0,1,4,14,5,,,,,,,,,,,,,,,1s,906.2081283619627,907.2091186628677,907.2018215470016,None,908.2014670870267,908.9343841178343,908.2014670870267,908.9343841178343,908.9258145731874,None,908.9258145731874,None,space,0.40294321812689304,908.9258145731874,None,0.7285,909.458172603976,None,,,,,,,DEC 025*,001,2022_Dec_02_1338,2-25_cond_decay_EYE-try,2021.2.3,119.23851544313774,
right,1.0,0.75,0,0,0,0,0,3,0,3,0,1,5,15,1,,,,,,,,,,,,,,,1s,910.558462806046,911.5591707918793,911.543293046765,None,912.5433136369102,912.9598252810538,912.5433136369102,912.9598252810538,912.9519083178602,None,912.9519083178602,None,space,0.43379812501370907,912.9519083178602,None,0.4102,913.5166389420629,None,,,,,,,DEC 025*,001,2022_Dec_02_1338,2-25_cond_decay_EYE-try,2021.2.3,119.23851544313774,
right,1.0,0.75,0,0,0,0,0,3,0,3,0,1,6,16,2,,,,,,,,,,,,,,,1s,914.6081899399869,915.6092082210816,915.6013045799918,None,916.6008229930885,917.0261293039657,916.6008229930885,917.0261293039657,917.0261293039657,None,917.0261293039657,None,space,0.4008629438467324,917.0261293039657,None,0.4222,917.5580309708603,None,,,,,,,DEC 025*,001,2022_Dec_02_1338,2-25_cond_decay_EYE-try,2021.2.3,119.23851544313774,
left,0.75,1.0,0,0,0,0,0,3,0,3,0,1,7,17,0,,,,,,,,,,,,,,,1s,918.6495487559587,919.65086044278,919.6428368818015,None,920.6430509779602,921.6350403139368,920.6430509779602,921.6350403139368,921.6260416298173,None,921.6260416298173,None,space,0.32810827111825347,921.6260416298173,None,0.9864,922.0831397310831,None,,,,,,,DEC 025*,001,2022_Dec_02_1338,2-25_cond_decay_EYE-try,2021.2.3,119.23851544313774,
right,0.75,1.0,1,0,0,0,0,3,0,3,0,1,8,18,9,,,,,,,,,,,,,,,1s,923.1749140680768,924.1761017017998,924.1677419389598,None,925.1683365977369,925.5848475298844,925.1683365977369,925.5848475298844,925.5848475298844,None,925.5848475298844,None,space,0.4530478110536933,925.5848475298844,None,0.4176,926.1667526410893,None,,,,,,,DEC 025*,001,2022_Dec_02_1338,2-25_cond_decay_EYE-try,2021.2.3,119.23851544313774,
right,1.0,0.75,0,0,0,0,0,3,0,3,0,1,9,19,7,,,,,,,,,,,,,,,1s,927.2589932810515,928.2603958998807,928.2509499350563,None,929.2510182061233,929.8512103818357,929.2510182061233,929.8512103818357,929.8512103818357,None,929.8512103818357,None,space,0.34265875024721026,929.8512103818357,None,0.5988,930.317439218983,None,,,,,,,DEC 025*,001,2022_Dec_02_1338,2-25_cond_decay_EYE-try,2021.2.3,119.23851544313774,
,,,,0,0,0,0,3,0,3,0,,,,,,,,,,,,,,,,,,,,,,,,,,,,,,,,,,,,,,,,,,,,,DEC 025*,001,2022_Dec_02_1338,2-25_cond_decay_EYE-try,2021.2.3,119.23851544313774,
,,,,0,0,0,0,,,,,,,,,,,,,,,,,,,,,,,,,,,,,,,,,,,,,,,,,,,931.2166515397839,None,931.2166515397839,None,931.2166515397839,None,DEC 025*,001,2022_Dec_02_1338,2-25_cond_decay_EYE-try,2021.2.3,119.23851544313774,
left,0.75,1.0,0,1,0,1,0,0,0,0,0,0,0,0,2,,,,,,,,,936.2170145991258,None,936.2170145991258,None,936.2170145991258,None,5s,937.9167003380135,938.9179228208959,938.909657782875,None,939.9099806337617,941.0432353029028,939.9099806337617,941.0432353029028,941.0346479830332,None,941.0346479830332,None,space,0.4110233229584992,941.0346479830332,None,1.131,941.5758207137696,None,,,,,,,DEC 025*,001,2022_Dec_02_1338,2-25_cond_decay_EYE-try,2021.2.3,119.23851544313774,
left,1.0,0.75,1,1,0,1,0,0,0,0,0,0,1,1,4,,,,,,,,,,,,,,,5s,942.6665264819749,943.6679809330963,943.659620239865,None,944.6599668748677,948.6270182668231,944.6599668748677,948.6270182668231,948.6270182668231,None,948.6270182668231,None,space,0.4357726559974253,948.6270182668231,None,3.966,949.191527120769,None,,,,,,,DEC 025*,001,2022_Dec_02_1338,2-25_cond_decay_EYE-try,2021.2.3,119.23851544313774,
left,0.75,1.0,0,1,0,1,0,0,0,0,0,0,2,2,7,,,,,,,,,,,,,,,5s,950.2498390269466,951.2516664131545,951.2434503687546,None,952.2438563578762,956.4263992910273,952.2438563578762,956.4263992910273,956.4179010991938,None,956.4179010991938,None,space,0.3282348960638046,956.4179010991938,None,4.1798,956.8757293778472,None,,,,,,,DEC 025*,001,2022_Dec_02_1338,2-25_cond_decay_EYE-try,2021.2.3,119.23851544313774,
right,1.0,0.75,0,1,0,1,0,0,0,0,0,0,3,3,0,,,,,,,,,,,,,,,5s,957.9675444178283,958.9682042268105,958.9596900907345,None,959.9602243890986,961.8016838170588,959.9602243890986,961.8016838170588,961.793025538791,962.7936666407622,961.793025538791,962.7936666407622,None,,961.793025538791,962.7936666407622,1.8365,962.9261391591281,None,,,,,,,DEC 025*,001,2022_Dec_02_1338,2-25_cond_decay_EYE-try,2021.2.3,119.23851544313774,
left,0.75,1.0,0,1,0,1,0,0,0,0,0,0,4,4,1,,,,,,,,,,,,,,,5s,964.0176258669235,965.0187814231031,965.0105198728852,None,966.0101633630693,969.9765774677508,966.0101633630693,969.9765774677508,969.9680817881599,None,969.9680817881599,None,space,0.3843390280380845,969.9680817881599,None,3.9607,970.4841634319164,None,,,,,,,DEC 025*,001,2022_Dec_02_1338,2-25_cond_decay_EYE-try,2021.2.3,119.23851544313774,
left,0.75,1.0,0,1,0,1,0,0,0,0,0,0,5,5,9,,,,,,,,,,,,,,,5s,971.5680667627603,972.568843700923,972.5604229508899,None,973.5603924677707,978.4684297731146,973.5603924677707,978.4684297731146,978.4607767458074,None,978.4607767458074,None,space,0.35841017682105303,978.4607767458074,None,4.9022,978.944141191896,None,,,,,,,DEC 025*,001,2022_Dec_02_1338,2-25_cond_decay_EYE-try,2021.2.3,119.23851544313774,
right,1.0,0.75,0,1,0,1,0,0,0,0,0,0,6,6,3,,,,,,,,,,,,,,,5s,980.0422052829526,981.0442657121457,981.035672146827,None,982.0351125509478,984.0848938021809,982.0351125509478,984.0848938021809,984.0848938021809,None,984.0848938021809,None,space,0.3697536401450634,984.0848938021809,None,2.0497,984.5846799868159,None,,,,,,,DEC 025*,001,2022_Dec_02_1338,2-25_cond_decay_EYE-try,2021.2.3,119.23851544313774,
right,0.75,1.0,1,1,0,1,0,0,0,0,0,0,7,7,6,,,,,,,,,,,,,,,5s,985.6762336897664,986.6775209368207,986.6682844841853,None,987.6682185679674,989.3270872971043,987.6682185679674,989.3270872971043,989.3270872971043,None,989.3270872971043,None,space,0.5606362130492926,989.3270872971043,None,1.659,990.0174446399324,None,,,,,,,DEC 025*,001,2022_Dec_02_1338,2-25_cond_decay_EYE-try,2021.2.3,119.23851544313774,
left,0.75,1.0,0,1,0,1,0,0,0,0,0,0,8,8,5,,,,,,,,,,,,,,,5s,991.1092407731339,992.1102700717747,992.1018747338094,None,993.1017327350564,994.9266432807781,993.1017327350564,994.9266432807781,994.9190051401965,None,994.9190051401965,None,space,0.419247274287045,994.9190051401965,None,1.8229,995.4672297751531,None,,,,,,,DEC 025*,001,2022_Dec_02_1338,2-25_cond_decay_EYE-try,2021.2.3,119.23851544313774,
right,1.0,0.75,0,1,0,1,0,0,0,0,0,0,9,9,8,,,,,,,,,,,,,,,5s,996.560110387858,997.5602549500763,997.5521893259138,None,998.552072045859,1001.5527818761766,998.552072045859,1001.5527818761766,1001.5527818761766,None,1001.5527818761766,None,space,0.37737572798505425,1001.5527818761766,None,2.9972,1002.0596482530236,None,,,,,,,DEC 025*,001,2022_Dec_02_1338,2-25_cond_decay_EYE-try,2021.2.3,119.23851544313774,
right,1.0,0.75,0,1,0,1,0,0,0,0,0,1,0,10,3,,,,,,,,,,,,,,,5s,1003.1508656698279,1004.1526198247448,1004.1443102448247,None,1005.1443591797724,1009.4520524977706,1005.1443591797724,1009.4520524977706,1009.4520524977706,None,1009.4520524977706,None,space,0.36991206696256995,1009.4520524977706,None,4.3057,1009.951504916884,None,,,,,,,DEC 025*,001,2022_Dec_02_1338,2-25_cond_decay_EYE-try,2021.2.3,119.23851544313774,
left,0.75,1.0,0,1,0,1,0,0,0,0,0,1,1,11,7,,,,,,,,,,,,,,,5s,1011.0424583009444,1012.0444939788431,1012.0270949988626,None,1013.0270495801233,1013.3440042198636,1013.0270495801233,1013.3440042198636,1013.3440042198636,None,1013.3440042198636,None,space,0.4946011248975992,1013.3440042198636,None,0.3126,1013.9681180650368,None,,,,,,,DEC 025*,001,2022_Dec_02_1338,2-25_cond_decay_EYE-try,2021.2.3,119.23851544313774,
left,0.75,1.0,0,1,0,1,0,0,0,0,0,1,2,12,5,,,,,,,,,,,,,,,5s,1015.0593083468266,1016.0612507131882,1016.0520108500496,None,1017.0528828147799,1017.5936922039837,1017.0528828147799,1017.5936922039837,1017.5858489321545,None,1017.5858489321545,None,space,0.4166197329759598,1017.5858489321545,None,0.5366,1018.1279868921265,None,,,,,,,DEC 025*,001,2022_Dec_02_1338,2-25_cond_decay_EYE-try,2021.2.3,119.23851544313774,
left,0.75,1.0,0,1,0,1,0,0,0,0,0,1,3,13,9,,,,,,,,,,,,,,,5s,1019.2194746560417,1020.2190832560882,1020.2110480368137,None,1021.2109592929482,1025.436417681165,1021.2109592929482,1025.436417681165,1025.436417681165,None,1025.436417681165,None,space,0.40229746513068676,1025.436417681165,None,4.2186,1025.967729206197,None,,,,,,,DEC 025*,001,2022_Dec_02_1338,2-25_cond_decay_EYE-try,2021.2.3,119.23851544313774,
left,1.0,0.75,1,1,0,1,0,0,0,0,0,1,4,14,4,,,,,,,,,,,,,,,5s,1027.0591036351398,1028.0610040607862,1028.0530363270082,None,1029.0527647887357,1031.4528817408718,1029.0527647887357,1031.4528817408718,1031.4440123271197,None,1031.4440123271197,None,space,0.4198311069048941,1031.4440123271197,None,2.3927,1031.9926345320418,None,,,,,,,DEC 025*,001,2022_Dec_02_1338,2-25_cond_decay_EYE-try,2021.2.3,119.23851544313774,
left,0.75,1.0,0,1,0,1,0,0,0,0,0,1,5,15,1,,,,,,,,,,,,,,,5s,1033.0843515661545,1034.0858234567568,1034.077865590807,None,1035.0777809801511,1035.7607234390453,1035.0777809801511,1035.7607234390453,1035.7521720919758,None,1035.7521720919758,None,space,0.4618091741576791,1035.7521720919758,None,0.677,1036.342680180911,None,,,,,,,DEC 025*,001,2022_Dec_02_1338,2-25_cond_decay_EYE-try,2021.2.3,119.23851544313774,
right,1.0,0.75,0,1,0,1,0,0,0,0,0,1,6,16,8,,,,,,,,,,,,,,,5s,1037.434367835056,1038.4357157438062,1038.4199356581084,None,1039.4198130699806,1042.8202896141447,1039.4198130699806,1042.8202896141447,1042.8202896141447,None,1042.8202896141447,None,space,0.34994139708578587,1042.8202896141447,None,3.3975,1043.294014708139,None,,,,,,,DEC 025*,001,2022_Dec_02_1338,2-25_cond_decay_EYE-try,2021.2.3,119.23851544313774,
right,1.0,0.75,0,1,0,1,0,0,0,0,0,1,7,17,2,,,,,,,,,,,,,,,5s,1044.3861338230781,1045.3857849240303,1045.3777223979123,None,1046.3776435409673,1050.2274721101858,1046.3776435409673,1050.2274721101858,1050.2274721101858,None,1050.2274721101858,None,space,0.403197247069329,1050.2274721101858,None,3.8506,1050.7594416341744,None,,,,,,,DEC 025*,001,2022_Dec_02_1338,2-25_cond_decay_EYE-try,2021.2.3,119.23851544313774,
right,1.0,0.75,0,1,0,1,0,0,0,0,0,1,8,18,0,,,,,,,,,,,,,,,5s,1051.8179309507832,1052.8198465821333,1052.8116501239128,None,1053.8115223529749,1054.8356642071158,1053.8115223529749,1054.8356642071158,1054.8281623101793,None,1054.8281623101793,None,space,0.41877354262396693,1054.8281623101793,None,1.0227,1055.3766683009453,None,,,,,,,DEC 025*,001,2022_Dec_02_1338,2-25_cond_decay_EYE-try,2021.2.3,119.23851544313774,
right,0.75,1.0,1,1,0,1,0,0,0,0,0,1,9,19,6,,,,,,,,,,,,,,,5s,1056.4350370788015,1057.4367049979046,1057.427533669863,None,1058.4276399379596,1062.9696626197547,1058.4276399379596,1062.9696626197547,1062.9696626197547,None,1062.9696626197547,None,None,,1062.9696626197547,None,4.54,1064.0935281501152,None,,,,,,,DEC 025*,001,2022_Dec_02_1338,2-25_cond_decay_EYE-try,2021.2.3,119.23851544313774,
,,,,1,0,1,0,0,0,0,0,,,,,,,,,,,,,,,,,,,,,,,,,,,,,,,,,,,,,,,,,,,,,DEC 025*,001,2022_Dec_02_1338,2-25_cond_decay_EYE-try,2021.2.3,119.23851544313774,
right,1.0,0.75,0,1,0,1,0,1,0,1,0,0,0,0,6,,,,,,,,,1064.9852381339297,None,1064.9852381339297,None,1064.9852381339297,None,3s,1067.0452429777943,1068.044656781014,1068.0361842280254,None,1069.0359935718589,1070.6284307627939,1069.0359935718589,1070.6284307627939,1070.6284307627939,None,1070.6284307627939,None,space,0.6434774906374514,1070.6284307627939,None,1.5913,1071.4014999140054,None,,,,,,,DEC 025*,001,2022_Dec_02_1338,2-25_cond_decay_EYE-try,2021.2.3,119.23851544313774,
left,0.75,1.0,0,1,0,1,0,1,0,1,0,0,1,1,8,,,,,,,,,,,,,,,3s,1072.4942020410672,1073.494475575164,1073.4862016541883,None,1074.4863124391995,1075.6780228409916,1074.4863124391995,1075.6780228409916,1075.6780228409916,None,1075.6780228409916,None,space,0.36057940078899264,1075.6780228409916,None,1.1928,1076.1687378189526,None,,,,,,,DEC 025*,001,2022_Dec_02_1338,2-25_cond_decay_EYE-try,2021.2.3,119.23851544313774,
right,1.0,0.75,0,1,0,1,0,1,0,1,0,0,2,2,5,,,,,,,,,,,,,,,3s,1077.2603265028447,1078.261578917969,1078.2532548969612,None,1079.2536067129113,1080.8952553537674,1079.2536067129113,1080.8952553537674,1080.8862789790146,None,1080.8862789790146,None,space,0.36966740107163787,1080.8862789790146,None,1.6352,1081.384723666124,None,,,,,,,DEC 025*,001,2022_Dec_02_1338,2-25_cond_decay_EYE-try,2021.2.3,119.23851544313774,
right,0.75,1.0,1,1,0,1,0,1,0,1,0,0,3,3,1,,,,,,,,,,,,,,,3s,1082.4698484991677,1083.4692692239769,1083.4611571119167,None,1084.461021755822,1086.828151191119,1084.461021755822,1086.828151191119,1086.828151191119,None,1086.828151191119,None,space,0.4277631100267172,1086.828151191119,None,2.3648,1087.3852373291738,None,,,,,,,DEC 025*,001,2022_Dec_02_1338,2-25_cond_decay_EYE-try,2021.2.3,119.23851544313774,
left,0.75,1.0,0,1,0,1,0,1,0,1,0,0,4,4,3,,,,,,,,,,,,,,,3s,1088.4773619910702,1089.4785602940246,1089.4695446868427,None,1090.4698921041563,1091.8113909787498,1090.4698921041563,1091.8113909787498,1091.8113909787498,None,1091.8113909787498,None,space,0.3844757340848446,1091.8113909787498,None,1.3385,1092.3204636778682,None,,,,,,,DEC 025*,001,2022_Dec_02_1338,2-25_cond_decay_EYE-try,2021.2.3,119.23851544313774,
left,0.75,1.0,0,1,0,1,0,1,0,1,0,0,5,5,0,,,,,,,,,,,,,,,3s,1093.4186527091078,1094.4204141041264,1094.4111676570028,None,1095.412126968149,1096.0536492499523,1095.412126968149,1096.0536492499523,1096.0448029008694,None,1096.0448029008694,None,space,0.4108027168549597,1096.0448029008694,None,0.635,1096.5853377189487,None,,,,,,,DEC 025*,001,2022_Dec_02_1338,2-25_cond_decay_EYE-try,2021.2.3,119.23851544313774,
right,1.0,0.75,0,1,0,1,0,1,0,1,0,0,6,6,4,,,,,,,,,,,,,,,3s,1097.676606936846,1098.678230654914,1098.662154873833,None,1099.6620620400645,1100.0034912298433,1099.6620620400645,1100.0034912298433,1100.0034912298433,None,1100.0034912298433,None,space,0.3938910448923707,1100.0034912298433,None,0.3418,1100.5269959089346,None,,,,,,,DEC 025*,001,2022_Dec_02_1338,2-25_cond_decay_EYE-try,2021.2.3,119.23851544313774,
left,1.0,0.75,1,1,0,1,0,1,0,1,0,0,7,7,7,,,,,,,,,,,,,,,3s,1101.6192357218824,1102.620413932018,1102.6121418499388,None,1103.6118239341304,1105.8698466611095,1103.6118239341304,1105.8698466611095,1105.8698466611095,None,1105.8698466611095,None,space,0.3447705530561507,1105.8698466611095,None,2.2587,1106.3438865249045,None,,,,,,,DEC 025*,001,2022_Dec_02_1338,2-25_cond_decay_EYE-try,2021.2.3,119.23851544313774,
right,1.0,0.75,0,1,0,1,0,1,0,1,0,0,8,8,9,,,,,,,,,,,,,,,3s,1107.435088540893,1108.437223460991,1108.4279103130102,None,1109.427941781003,1111.3198107201606,1109.427941781003,1111.3198107201606,1111.3198107201606,None,1111.3198107201606,None,space,0.3691580081358552,1111.3198107201606,None,1.893,1111.8188038878143,None,,,,,,,DEC 025*,001,2022_Dec_02_1338,2-25_cond_decay_EYE-try,2021.2.3,119.23851544313774,
left,0.75,1.0,0,1,0,1,0,1,0,1,0,0,9,9,2,,,,,,,,,,,,,,,3s,1112.910553094931,1113.9119274187833,1113.894983776845,None,1114.9032319751568,1116.4200374498032,1114.9032319751568,1116.4200374498032,1116.411347234156,None,1116.411347234156,None,space,0.5430582789704204,1116.411347234156,None,1.5102,1117.0860800510272,None,,,,,,,DEC 025*,001,2022_Dec_02_1338,2-25_cond_decay_EYE-try,2021.2.3,119.23851544313774,
left,0.75,1.0,0,1,0,1,0,1,0,1,0,1,0,10,8,,,,,,,,,,,,,,,3s,1118.1771698449738,1119.1790712960064,1119.1696957219392,None,1120.1696509458125,1122.9536770829,1120.1696509458125,1122.9536770829,1122.9536770829,None,1122.9536770829,None,space,0.37587349489331245,1122.9536770829,None,2.784,1123.4540670388378,None,,,,,,,DEC 025*,001,2022_Dec_02_1338,2-25_cond_decay_EYE-try,2021.2.3,119.23851544313774,
right,1.0,0.75,0,1,0,1,0,1,0,1,0,1,1,11,6,,,,,,,,,,,,,,,3s,1124.5524696349166,1125.5535891591571,1125.5453979200684,None,1126.5448655099608,1128.2288617971353,1126.5448655099608,1128.2288617971353,1128.2288617971353,None,1128.2288617971353,None,space,0.3335637007839978,1128.2288617971353,None,1.6816,1128.6876158588566,None,,,,,,,DEC 025*,001,2022_Dec_02_1338,2-25_cond_decay_EYE-try,2021.2.3,119.23851544313774,
left,1.0,0.75,1,1,0,1,0,1,0,1,0,1,2,12,7,,,,,,,,,,,,,,,3s,1129.7944458140992,1130.7952828397974,1130.7866687919013,None,1131.787563091144,1134.6201515109278,1131.787563091144,1134.6201515109278,1134.6201515109278,None,1134.6201515109278,None,space,0.4198163109831512,1134.6201515109278,None,2.8324,1135.1692652571946,None,,,,,,,DEC 025*,001,2022_Dec_02_1338,2-25_cond_decay_EYE-try,2021.2.3,119.23851544313774,
left,0.75,1.0,0,1,0,1,0,1,0,1,0,1,3,13,3,,,,,,,,,,,,,,,3s,1136.2616469971836,1137.2617732128128,1137.2542042131536,None,1138.2537076910958,1138.52009060001,1138.2537076910958,1138.52009060001,1138.5116394921206,None,1138.5116394921206,None,space,0.5190503718331456,1138.5116394921206,None,0.2591,1139.1541335321963,None,,,,,,,DEC 025*,001,2022_Dec_02_1338,2-25_cond_decay_EYE-try,2021.2.3,119.23851544313774,
right,0.75,1.0,1,1,0,1,0,1,0,1,0,1,4,14,1,,,,,,,,,,,,,,,3s,1140.2521806531586,1141.2533249850385,1141.24577950174,None,1142.2449650787748,1144.936996545177,1142.2449650787748,1144.936996545177,1144.9293429711834,None,1144.9293429711834,None,space,0.43382785096764565,1144.9293429711834,None,2.6854,1145.4871925311163,None,,,,,,,DEC 025*,001,2022_Dec_02_1338,2-25_cond_decay_EYE-try,2021.2.3,119.23851544313774,
right,1.0,0.75,0,1,0,1,0,1,0,1,0,1,5,15,5,,,,,,,,,,,,,,,3s,1146.5780481258407,1147.5787747921422,1147.5703891259618,None,1148.5701042809524,1149.0034029749222,1148.5701042809524,1149.0034029749222,1148.9956750739366,None,1148.9956750739366,None,space,0.41097447415813804,1148.9956750739366,None,0.4273,1149.536001462955,None,,,,,,,DEC 025*,001,2022_Dec_02_1338,2-25_cond_decay_EYE-try,2021.2.3,119.23851544313774,
right,1.0,0.75,0,1,0,1,0,1,0,1,0,1,6,16,4,,,,,,,,,,,,,,,3s,1150.620149428025,1151.6210461729206,1151.6127331149764,None,1152.612705882173,1155.3285080380738,1152.612705882173,1155.3285080380738,1155.3285080380738,None,1155.3285080380738,None,space,0.3364073750562966,1155.3285080380738,None,2.7122,1155.79398763692,None,,,,,,,DEC 025*,001,2022_Dec_02_1338,2-25_cond_decay_EYE-try,2021.2.3,119.23851544313774,
left,0.75,1.0,0,1,0,1,0,1,0,1,0,1,7,17,2,,,,,,,,,,,,,,,3s,1156.887771285139,1157.8868501097895,1157.8794148489833,None,1158.8783821561374,1160.3035541977733,1158.8783821561374,1160.3035541977733,1160.3035541977733,None,1160.3035541977733,None,space,0.3944647628813982,1160.3035541977733,None,1.4214,1160.8280971017666,None,,,,,,,DEC 025*,001,2022_Dec_02_1338,2-25_cond_decay_EYE-try,2021.2.3,119.23851544313774,
left,0.75,1.0,0,1,0,1,0,1,0,1,0,1,8,18,0,,,,,,,,,,,,,,,3s,1161.9124943530187,1162.9124585851096,1162.9039787747897,None,1163.9045201479457,1165.2203828720376,1163.9045201479457,1165.2203828720376,1165.2203828720376,None,1165.2203828720376,None,space,0.427384871058166,1165.2203828720376,None,1.3114,1165.7783067058772,None,,,,,,,DEC 025*,001,2022_Dec_02_1338,2-25_cond_decay_EYE-try,2021.2.3,119.23851544313774,
right,1.0,0.75,0,1,0,1,0,1,0,1,0,1,9,19,9,,,,,,,,,,,,,,,3s,1166.86993733095,1167.8704356341623,1167.8620266621,None,1168.8622039947659,1170.8542565028183,1168.8622039947659,1170.8542565028183,1170.845571352169,None,1170.845571352169,None,space,0.41929354425519705,1170.845571352169,None,1.9888,1171.3948340290226,None,,,,,,,DEC 025*,001,2022_Dec_02_1338,2-25_cond_decay_EYE-try,2021.2.3,119.23851544313774,
,,,,1,0,1,0,1,0,1,0,,,,,,,,,,,,,,,,,,,,,,,,,,,,,,,,,,,,,,,,,,,,,DEC 025*,001,2022_Dec_02_1338,2-25_cond_decay_EYE-try,2021.2.3,119.23851544313774,
right,1.0,0.75,0,1,0,1,0,2,0,2,0,0,0,0,7,,,,,,,,,1172.2856516041793,None,1172.2856516041793,None,1172.2856516041793,None,10s,1173.7362669468857,1174.7379943719134,1174.7287695938721,None,1175.7291118530557,1182.062513853889,1175.7291118530557,1182.062513853889,1182.0547249051742,None,1182.0547249051742,None,space,0.4104012711904943,1182.0547249051742,None,6.3309,1182.5947921411134,None,,,,,,,DEC 025*,001,2022_Dec_02_1338,2-25_cond_decay_EYE-try,2021.2.3,119.23851544313774,
right,1.0,0.75,0,1,0,1,0,2,0,2,0,0,1,1,6,,,,,,,,,,,,,,,10s,1183.679641156923,1184.6793017750606,1184.6708255521953,None,1185.6713078161702,1186.454286846798,1185.6713078161702,1186.454286846798,1186.454286846798,None,1186.454286846798,None,space,0.48379316832870245,1186.454286846798,None,0.7817,1187.0627017728984,None,,,,,,,DEC 025*,001,2022_Dec_02_1338,2-25_cond_decay_EYE-try,2021.2.3,119.23851544313774,
left,0.75,1.0,0,1,0,1,0,2,0,2,0,0,2,2,8,,,,,,,,,,,,,,,10s,1188.16087672906,1189.1620164089836,1189.15398399299,None,1190.1541689038277,1192.4791150130332,1190.1541689038277,1192.4791150130332,1192.4791150130332,None,1192.4791150130332,None,space,0.38597659626975656,1192.4791150130332,None,2.3254,1192.9947494640946,None,,,,,,,DEC 025*,001,2022_Dec_02_1338,2-25_cond_decay_EYE-try,2021.2.3,119.23851544313774,
left,0.75,1.0,0,1,0,1,0,2,0,2,0,0,3,3,0,,,,,,,,,,,,,,,10s,1194.0781720587984,1195.0789723359048,1195.0709813437425,None,1196.0706826918758,1202.38817655202,1196.0706826918758,1202.38817655202,1202.38817655202,None,1202.38817655202,None,space,0.3504159967415035,1202.38817655202,None,6.3134,1202.8625861839391,None,,,,,,,DEC 025*,001,2022_Dec_02_1338,2-25_cond_decay_EYE-try,2021.2.3,119.23851544313774,
left,1.0,0.75,1,1,0,1,0,2,0,2,0,0,4,4,4,,,,,,,,,,,,,,,10s,1203.9541961997747,1204.955064454116,1204.946524634026,None,1205.9462649221532,1215.5880771800876,1205.9462649221532,1215.5880771800876,1215.5880771800876,None,1215.5880771800876,None,space,0.4439018606208265,1215.5880771800876,None,9.6366,1216.1620365241542,None,,,,,,,DEC 025*,001,2022_Dec_02_1338,2-25_cond_decay_EYE-try,2021.2.3,119.23851544313774,
right,0.75,1.0,1,1,0,1,0,2,0,2,0,0,5,5,1,,,,,,,,,,,,,,,10s,1217.2543154619634,1218.2548841889948,1218.2466091969982,None,1219.2468151100911,1227.245990389958,1219.2468151100911,1227.245990389958,1227.2384764528833,None,1227.2384764528833,None,space,0.5358658251352608,1227.2384764528833,None,7.9945,1227.90326648904,None,,,,,,,DEC 025*,001,2022_Dec_02_1338,2-25_cond_decay_EYE-try,2021.2.3,119.23851544313774,
right,1.0,0.75,0,1,0,1,0,2,0,2,0,0,6,6,9,,,,,,,,,,,,,,,10s,1228.9877890730277,1229.9875509501435,1229.979480998125,None,1230.9795164000243,1240.8793410388753,1230.9795164000243,1240.8793410388753,1240.8793410388753,None,1240.8793410388753,None,space,0.5028917058371007,1240.8793410388753,None,9.899,1241.5116420467384,None,,,,,,,DEC 025*,001,2022_Dec_02_1338,2-25_cond_decay_EYE-try,2021.2.3,119.23851544313774,
left,0.75,1.0,0,1,0,1,0,2,0,2,0,0,7,7,2,,,,,,,,,,,,,,,10s,1242.6036194921471,1243.604346964974,1243.5969342300668,None,1244.5970185208134,1246.179871990811,1244.5970185208134,1246.179871990811,1246.179871990811,None,1246.179871990811,None,space,0.5175772467628121,1246.179871990811,None,1.5824,1246.8282643761486,None,,,,,,,DEC 025*,001,2022_Dec_02_1338,2-25_cond_decay_EYE-try,2021.2.3,119.23851544313774,
right,1.0,0.75,0,1,0,1,0,2,0,2,0,0,8,8,5,,,,,,,,,,,,,,,10s,1247.928375935182,1248.9294729111716,1248.9211692968383,None,1249.922158620786,1252.2302062651142,1249.922158620786,1252.2302062651142,1252.2216104459949,None,1252.2216104459949,None,space,0.508694970048964,1252.2216104459949,None,2.3032,1252.855073390063,None,,,,,,,DEC 025*,001,2022_Dec_02_1338,2-25_cond_decay_EYE-try,2021.2.3,119.23851544313774,
left,0.75,1.0,0,1,0,1,0,2,0,2,0,0,9,9,3,,,,,,,,,,,,,,,10s,1253.9543380141258,1254.9554316378199,1254.946229359135,None,1255.9467670279555,1257.7713158559054,1255.9467670279555,1257.7713158559054,1257.7637463980354,None,1257.7637463980354,None,space,0.4441693043336272,1257.7637463980354,None,1.8203,1258.3366396189667,None,,,,,,,DEC 025*,001,2022_Dec_02_1338,2-25_cond_decay_EYE-try,2021.2.3,119.23851544313774,
left,0.75,1.0,0,1,0,1,0,2,0,2,0,1,0,10,8,,,,,,,,,,,,,,,10s,1259.421550375875,1260.421159455087,1260.4129557381384,None,1261.4130476377904,1266.637960031163,1261.4130476377904,1266.637960031163,1266.637960031163,None,1266.637960031163,None,space,0.37788800429552794,1266.637960031163,None,5.2248,1267.1457106438465,None,,,,,,,DEC 025*,001,2022_Dec_02_1338,2-25_cond_decay_EYE-try,2021.2.3,119.23851544313774,
right,1.0,0.75,0,1,0,1,0,2,0,2,0,1,1,11,5,,,,,,,,,,,,,,,10s,1268.2367721600458,1269.2385284719057,1269.2299547209404,None,1270.2298539937474,1273.4301029769704,1270.2298539937474,1273.4301029769704,1273.4301029769704,None,1273.4301029769704,None,space,0.3526878859847784,1273.4301029769704,None,3.1979,1273.9126267270185,None,,,,,,,DEC 025*,001,2022_Dec_02_1338,2-25_cond_decay_EYE-try,2021.2.3,119.23851544313774,
left,0.75,1.0,0,1,0,1,0,2,0,2,0,1,2,12,0,,,,,,,,,,,,,,,10s,1275.0044144098647,1276.0047162701376,1275.9966275789775,None,1276.9968875218183,1285.4302764469758,1276.9968875218183,1285.4302764469758,1285.4302764469758,None,1285.4302764469758,None,space,0.41092942422255874,1285.4302764469758,None,8.4339,1285.9709537690505,None,,,,,,,DEC 025*,001,2022_Dec_02_1338,2-25_cond_decay_EYE-try,2021.2.3,119.23851544313774,
left,0.75,1.0,0,1,0,1,0,2,0,2,0,1,3,13,3,,,,,,,,,,,,,,,10s,1287.0554460668936,1288.054925695993,1288.046798659023,None,1289.0469107711688,1293.4970010919496,1289.0469107711688,1293.4970010919496,1293.4970010919496,None,1293.4970010919496,None,space,0.45042206812649965,1293.4970010919496,None,4.4459,1294.0708896531723,None,,,,,,,DEC 025*,001,2022_Dec_02_1338,2-25_cond_decay_EYE-try,2021.2.3,119.23851544313774,
right,1.0,0.75,0,1,0,1,0,2,0,2,0,1,4,14,9,,,,,,,,,,,,,,,10s,1295.1710152518936,1296.1718282890506,1296.163650963921,None,1297.164292755071,1302.6637748419307,1297.164292755071,1302.6637748419307,1302.6637748419307,None,1302.6637748419307,None,space,0.47790775168687105,1302.6637748419307,None,5.5005,1303.2713872957975,None,,,,,,,DEC 025*,001,2022_Dec_02_1338,2-25_cond_decay_EYE-try,2021.2.3,119.23851544313774,
right,1.0,0.75,0,1,0,1,0,2,0,2,0,1,5,15,6,,,,,,,,,,,,,,,10s,1304.3625828437507,1305.3634194429033,1305.3560687988065,None,1306.3558209901676,1313.8644270249642,1306.3558209901676,1313.8644270249642,1313.8557029771619,None,1313.8557029771619,None,space,0.4257980203256011,1313.8557029771619,None,7.5014,1314.4048292730004,None,,,,,,,DEC 025*,001,2022_Dec_02_1338,2-25_cond_decay_EYE-try,2021.2.3,119.23851544313774,
left,0.75,1.0,0,1,0,1,0,2,0,2,0,1,6,16,2,,,,,,,,,,,,,,,10s,1315.5057299719192,1316.5056557240896,1316.4972029109485,None,1317.497614924796,1326.014162111096,1317.497614924796,1326.014162111096,1326.014162111096,None,1326.014162111096,None,space,0.4359855358488858,1326.014162111096,None,8.5123,1326.579742881935,None,,,,,,,DEC 025*,001,2022_Dec_02_1338,2-25_cond_decay_EYE-try,2021.2.3,119.23851544313774,
right,0.75,1.0,1,1,0,1,0,2,0,2,0,1,7,17,1,,,,,,,,,,,,,,,10s,1327.6714563858695,1328.6725438721478,1328.6644506710581,None,1329.6645053210668,1339.3637687768787,1329.6645053210668,1339.3637687768787,1339.3637687768787,None,1339.3637687768787,None,space,0.678079963196069,1339.3637687768787,None,9.7005,1340.170991315972,None,,,,,,,DEC 025*,001,2022_Dec_02_1338,2-25_cond_decay_EYE-try,2021.2.3,119.23851544313774,
left,1.0,0.75,1,1,0,1,0,2,0,2,0,1,8,18,4,,,,,,,,,,,,,,,10s,1341.2634349889122,1342.264768506866,1342.2555155139416,None,1343.2478450527415,1344.722049916163,1343.2478450527415,1344.722049916163,1344.722049916163,None,1344.722049916163,None,space,0.5429831757210195,1344.722049916163,None,1.4737,1345.3963048867881,None,,,,,,,DEC 025*,001,2022_Dec_02_1338,2-25_cond_decay_EYE-try,2021.2.3,119.23851544313774,
right,1.0,0.75,0,1,0,1,0,2,0,2,0,1,9,19,7,,,,,,,,,,,,,,,10s,1346.4964092141017,1347.4973543127999,1347.4811217710376,None,1348.4813434989192,1353.9228302990086,1348.4813434989192,1353.9228302990086,1353.9140455229208,1354.914011400193,1353.9140455229208,1354.914011400193,None,,1353.9140455229208,1354.914011400193,5.4343,1355.0467989621684,None,,,,,,,DEC 025*,001,2022_Dec_02_1338,2-25_cond_decay_EYE-try,2021.2.3,119.23851544313774,
,,,,1,0,1,0,2,0,2,0,,,,,,,,,,,,,,,,,,,,,,,,,,,,,,,,,,,,,,,,,,,,,DEC 025*,001,2022_Dec_02_1338,2-25_cond_decay_EYE-try,2021.2.3,119.23851544313774,
right,1.0,0.75,0,1,0,1,0,3,0,3,0,0,0,0,5,,,,,,,,,1355.9381604101509,None,1355.9381604101509,None,1355.9381604101509,None,1s,1358.197067964822,1359.1976163820364,1359.1890854118392,None,1360.189126974903,1361.0059032980353,1360.189126974903,1361.0059032980353,1361.0059032980353,None,1361.0059032980353,None,space,0.386086103040725,1361.0059032980353,None,0.8169,1361.5215574777685,None,,,,,,,DEC 025*,001,2022_Dec_02_1338,2-25_cond_decay_EYE-try,2021.2.3,119.23851544313774,
right,1.0,0.75,0,1,0,1,0,3,0,3,0,0,1,1,1,,,,,,,,,,,,,,,1s,1362.6127094519325,1363.6142361420207,1363.6061320779845,None,1364.6061142217368,1365.5896126138978,1364.6061142217368,1365.5896126138978,1365.5896126138978,None,1365.5896126138978,None,space,0.4353389791212976,1365.5896126138978,None,0.9832,1366.1546447421424,None,,,,,,,DEC 025*,001,2022_Dec_02_1338,2-25_cond_decay_EYE-try,2021.2.3,119.23851544313774,
left,0.75,1.0,0,1,0,1,0,3,0,3,0,0,2,2,7,,,,,,,,,,,,,,,1s,1367.2462031641044,1368.2476223600097,1368.2399538070895,None,1369.2394573129714,1369.7389510590583,1369.2394573129714,1369.7389510590583,1369.7306048017927,None,1369.7306048017927,None,space,0.3343363869935274,1369.7306048017927,None,0.495,1370.1886646710336,None,,,,,,,DEC 025*,001,2022_Dec_02_1338,2-25_cond_decay_EYE-try,2021.2.3,119.23851544313774,
right,1.0,0.75,0,1,0,1,0,3,0,3,0,0,3,3,6,,,,,,,,,,,,,,,1s,1371.2890396388248,1372.2896046191454,1372.2810517009348,None,1373.280850279145,1374.0808110400103,1373.280850279145,1374.0808110400103,1374.0808110400103,None,1374.0808110400103,None,space,0.405260369181633,1374.0808110400103,None,0.7997,1374.613074848894,None,,,,,,,DEC 025*,001,2022_Dec_02_1338,2-25_cond_decay_EYE-try,2021.2.3,119.23851544313774,
left,1.0,0.75,1,1,0,1,0,3,0,3,0,0,4,4,3,,,,,,,,,,,,,,,1s,1375.7050251290202,1376.7059431620874,1376.6976320268586,None,1377.6980902319774,1378.2728841998614,1377.6980902319774,1378.2728841998614,1378.2728841998614,None,1378.2728841998614,None,space,0.5188333806581795,1378.2728841998614,None,0.5745,1378.9218338131905,None,,,,,,,DEC 025*,001,2022_Dec_02_1338,2-25_cond_decay_EYE-try,2021.2.3,119.23851544313774,
right,1.0,0.75,0,1,0,1,0,3,0,3,0,0,5,5,0,,,,,,,,,,,,,,,1s,1380.0221634441987,1381.0230067488737,1381.0058397171088,None,1382.0067925839685,1382.305825133808,1382.0067925839685,1382.305825133808,1382.305825133808,None,1382.305825133808,None,space,0.46083497162908316,1382.305825133808,None,0.2988,1382.896715739742,None,,,,,,,DEC 025*,001,2022_Dec_02_1338,2-25_cond_decay_EYE-try,2021.2.3,119.23851544313774,
left,0.75,1.0,0,1,0,1,0,3,0,3,0,0,6,6,8,,,,,,,,,,,,,,,1s,1383.988596267067,1384.9892323231325,1384.9818559098057,None,1385.9817381971516,1386.3393883411773,1385.9817381971516,1386.3393883411773,1386.330917477142,None,1386.330917477142,None,space,0.34295765217393637,1386.330917477142,None,0.3515,1386.8047617590055,None,,,,,,,DEC 025*,001,2022_Dec_02_1338,2-25_cond_decay_EYE-try,2021.2.3,119.23851544313774,
left,0.75,1.0,0,1,0,1,0,3,0,3,0,0,7,7,2,,,,,,,,,,,,,,,1s,1387.890372321941,1388.8897936157882,1388.8815369321965,None,1389.8810942098498,1390.2318454617634,1389.8810942098498,1390.2318454617634,1390.2318454617634,None,1390.2318454617634,None,space,0.3099112999625504,1390.2318454617634,None,0.3485,1390.6715595759451,None,,,,,,,DEC 025*,001,2022_Dec_02_1338,2-25_cond_decay_EYE-try,2021.2.3,119.23851544313774,
right,0.75,1.0,1,1,0,1,0,3,0,3,0,0,8,8,9,,,,,,,,,,,,,,,1s,1391.763556946069,1392.7649231320247,1392.7565806470811,None,1393.756350003183,1394.6069588568062,1393.756350003183,1394.6069588568062,1394.6069588568062,None,1394.6069588568062,None,space,0.3609872991219163,1394.6069588568062,None,0.8441,1395.0965196727775,None,,,,,,,DEC 025*,001,2022_Dec_02_1338,2-25_cond_decay_EYE-try,2021.2.3,119.23851544313774,
right,1.0,0.75,0,1,0,1,0,3,0,3,0,0,9,9,4,,,,,,,,,,,,,,,1s,1396.1891177147627,1397.1895220768638,1397.1811716337688,None,1398.181109725032,1398.5150266038254,1398.181109725032,1398.5150266038254,1398.5061179767363,None,1398.5061179767363,None,space,0.3921640799380839,1398.5061179767363,None,0.3289,1399.0229403330013,None,,,,,,,DEC 025*,001,2022_Dec_02_1338,2-25_cond_decay_EYE-try,2021.2.3,119.23851544313774,
left,0.75,1.0,0,1,0,1,0,3,0,3,0,1,0,10,5,,,,,,,,,,,,,,,1s,1400.1215258981101,1401.1235445439816,1401.1063712318428,None,1402.1149458447471,1402.5817352710292,1402.1149458447471,1402.5817352710292,1402.5732259377837,None,1402.5732259377837,None,space,0.3174347411841154,1402.5732259377837,None,0.4635,1403.022113205865,None,,,,,,,DEC 025*,001,2022_Dec_02_1338,2-25_cond_decay_EYE-try,2021.2.3,119.23851544313774,
right,1.0,0.75,0,1,0,1,0,3,0,3,0,1,1,11,4,,,,,,,,,,,,,,,1s,1404.1218768297695,1405.123330574017,1405.1153065529652,None,1406.1152310469188,1406.614674413111,1406.1152310469188,1406.614674413111,1406.614674413111,None,1406.614674413111,None,space,0.33573724795132875,1406.614674413111,None,0.4974,1407.0807636179961,None,,,,,,,DEC 025*,001,2022_Dec_02_1338,2-25_cond_decay_EYE-try,2021.2.3,119.23851544313774,
right,0.75,1.0,1,1,0,1,0,3,0,3,0,1,2,12,9,,,,,,,,,,,,,,,1s,1408.164734262973,1409.1647122837603,1409.1561469770968,None,1410.1563208778389,1411.081914828159,1410.1563208778389,1411.081914828159,1411.081914828159,None,1411.081914828159,None,space,0.37586486991494894,1411.081914828159,None,0.9249,1411.5815444900654,None,,,,,,,DEC 025*,001,2022_Dec_02_1338,2-25_cond_decay_EYE-try,2021.2.3,119.23851544313774,
left,1.0,0.75,1,1,0,1,0,3,0,3,0,1,3,13,3,,,,,,,,,,,,,,,1s,1412.6804698649794,1413.681372353807,1413.6730302148499,None,1414.6731909927912,1415.1985841197893,1414.6731909927912,1415.1985841197893,1415.1985841197893,None,1415.1985841197893,None,space,0.4587123738601804,1415.1985841197893,None,0.5206,1415.7885574218817,None,,,,,,,DEC 025*,001,2022_Dec_02_1338,2-25_cond_decay_EYE-try,2021.2.3,119.23851544313774,
left,0.75,1.0,0,1,0,1,0,3,0,3,0,1,4,14,7,,,,,,,,,,,,,,,1s,1416.8802837710828,1417.8816716978326,1417.8735579359345,None,1418.8734717727639,1419.0571466498077,1418.8734717727639,1419.0571466498077,1419.0483322031796,None,1419.0483322031796,None,space,0.5022554341703653,1419.0483322031796,None,0.1765,1419.680874187965,None,,,,,,,DEC 025*,001,2022_Dec_02_1338,2-25_cond_decay_EYE-try,2021.2.3,119.23851544313774,
left,0.75,1.0,0,1,0,1,0,3,0,3,0,1,5,15,8,,,,,,,,,,,,,,,1s,1420.764738556929,1421.7652864330448,1421.756800109055,None,1422.7563351891004,1423.2321007391438,1422.7563351891004,1423.2321007391438,1423.2321007391438,None,1423.2321007391438,None,space,0.32669179793447256,1423.2321007391438,None,0.4718,1423.6893431451172,None,,,,,,,DEC 025*,001,2022_Dec_02_1338,2-25_cond_decay_EYE-try,2021.2.3,119.23851544313774,
right,1.0,0.75,0,1,0,1,0,3,0,3,0,1,6,16,0,,,,,,,,,,,,,,,1s,1424.7490581749007,1425.7482732827775,1425.7403501719236,None,1426.740509095136,1427.457272414118,1426.740509095136,1427.457272414118,1427.457272414118,None,1427.457272414118,None,space,0.32674526888877153,1427.457272414118,None,0.7122,1427.9133621291257,None,,,,,,,DEC 025*,001,2022_Dec_02_1338,2-25_cond_decay_EYE-try,2021.2.3,119.23851544313774,
right,1.0,0.75,0,1,0,1,0,3,0,3,0,1,7,17,6,,,,,,,,,,,,,,,1s,1429.0054681617767,1430.0073874378577,1429.9979885471985,None,1430.9988620099612,1431.4822084358893,1430.9988620099612,1431.4822084358893,1431.473520891741,None,1431.473520891741,None,space,0.3196240081451833,1431.473520891741,None,0.481,1431.9228650471196,None,,,,,,,DEC 025*,001,2022_Dec_02_1338,2-25_cond_decay_EYE-try,2021.2.3,119.23851544313774,
left,0.75,1.0,0,1,0,1,0,3,0,3,0,1,8,18,2,,,,,,,,,,,,,,,1s,1433.0134839280508,1434.0154043049552,1434.0069955298677,None,1434.998055886943,1435.2236616741866,1434.998055886943,1435.2236616741866,1435.23144046776,None,1435.23144046776,None,space,0.9365162709727883,1435.23144046776,None,0.2257,1436.2969510499388,None,,,,,,,DEC 025*,001,2022_Dec_02_1338,2-25_cond_decay_EYE-try,2021.2.3,119.23851544313774,
right,1.0,0.75,0,1,0,1,0,3,0,3,0,1,9,19,1,,,,,,,,,,,,,,,1s,1437.3970050611533,1438.398121542763,1438.3900098279119,None,1439.3901546648704,1439.7236907128245,1439.3901546648704,1439.7236907128245,1439.7149237757549,None,1439.7149237757549,None,space,0.3432077970355749,1439.7149237757549,None,0.3318,1440.181560811121,None,,,,,,,DEC 025*,001,2022_Dec_02_1338,2-25_cond_decay_EYE-try,2021.2.3,119.23851544313774,
,,,,1,0,1,0,3,0,3,0,,,,,,,,,,,,,,,,,,,,,,,,,,,,,,,,,,,,,,,,,,,,,DEC 025*,001,2022_Dec_02_1338,2-25_cond_decay_EYE-try,2021.2.3,119.23851544313774,
,,,,1,0,1,0,,,,,,,,,,,,,,,,,,,,,,,,,,,,,,,,,,,,,,,,,,,1441.0806967047974,None,1441.0806967047974,None,1441.0806967047974,None,DEC 025*,001,2022_Dec_02_1338,2-25_cond_decay_EYE-try,2021.2.3,119.23851544313774,
left,0.75,1.0,0,2,0,2,0,0,0,0,0,0,0,0,2,,,,,,,,,1446.0809425679035,None,1446.0809425679035,None,1446.0809425679035,None,10s,1448.788870721124,1449.7902440428734,1449.78213942796,None,1450.7822259771638,1460.2819349360652,1450.7822259771638,1460.2819349360652,1460.2819349360652,None,1460.2819349360652,None,space,0.33635525591671467,1460.2819349360652,None,9.4985,1460.7470819260925,None,,,,,,,DEC 025*,001,2022_Dec_02_1338,2-25_cond_decay_EYE-try,2021.2.3,119.23851544313774,
left,0.75,1.0,0,2,0,2,0,0,0,0,0,0,1,1,7,,,,,,,,,,,,,,,10s,1461.8061153958552,1462.8080423567444,1462.7995671010576,None,1463.7986913868226,1472.2159562087618,1463.7986913868226,1472.2159562087618,1472.2159562087618,None,1472.2159562087618,None,space,0.37705797189846635,1472.2159562087618,None,8.4173,1472.7224466060288,None,,,,,,,DEC 025*,001,2022_Dec_02_1338,2-25_cond_decay_EYE-try,2021.2.3,119.23851544313774,
left,0.75,1.0,0,2,0,2,0,0,0,0,0,0,2,2,0,,,,,,,,,,,,,,,10s,1473.8146130531095,1474.8156941458583,1474.8077687579207,None,1475.8078890009783,1477.1905527929775,1475.8078890009783,1477.1905527929775,1477.1819851761684,None,1477.1819851761684,None,space,0.4191744960844517,1477.1819851761684,None,1.3765,1477.730892888736,None,,,,,,,DEC 025*,001,2022_Dec_02_1338,2-25_cond_decay_EYE-try,2021.2.3,119.23851544313774,
right,1.0,0.75,0,2,0,2,0,0,0,0,0,0,3,3,9,,,,,,,,,,,,,,,10s,1478.8234115839005,1479.8236439591274,1479.8155837887898,None,1480.8156229471788,1482.757997890003,1480.8156229471788,1482.757997890003,1482.7494475310668,None,1482.7494475310668,None,space,0.39332114020362496,1482.7494475310668,None,1.9391,1483.2722523291595,None,,,,,,,DEC 025*,001,2022_Dec_02_1338,2-25_cond_decay_EYE-try,2021.2.3,119.23851544313774,
right,0.75,1.0,1,2,0,2,0,0,0,0,0,0,4,4,6,,,,,,,,,,,,,,,10s,1484.3560578860343,1485.3574423887767,1485.3492717929184,None,1486.3489188970998,1487.6241841400042,1486.3489188970998,1487.6241841400042,1487.6241841400042,None,1487.6241841400042,None,space,0.45007443940266967,1487.6241841400042,None,1.2767,1488.205809156876,None,,,,,,,DEC 025*,001,2022_Dec_02_1338,2-25_cond_decay_EYE-try,2021.2.3,119.23851544313774,
right,1.0,0.75,0,2,0,2,0,0,0,0,0,0,5,5,3,,,,,,,,,,,,,,,10s,1489.297530095093,1490.2997632781044,1490.2902891701087,None,1491.290353171993,1498.940811325796,1491.290353171993,1498.940811325796,1498.9324890859425,None,1498.9324890859425,None,space,0.3776954170316458,1498.9324890859425,None,7.6449,1499.4395539741963,None,,,,,,,DEC 025*,001,2022_Dec_02_1338,2-25_cond_decay_EYE-try,2021.2.3,119.23851544313774,
right,1.0,0.75,0,2,0,2,0,0,0,0,0,0,6,6,8,,,,,,,,,,,,,,,10s,1500.5310915498994,1501.532609609887,1501.5241882018745,None,1502.524287411943,1512.1410001488402,1502.524287411943,1512.1410001488402,1512.1410001488402,None,1512.1410001488402,None,space,0.677989502903074,1512.1410001488402,None,9.6153,1512.9481835230254,None,,,,,,,DEC 025*,001,2022_Dec_02_1338,2-25_cond_decay_EYE-try,2021.2.3,119.23851544313774,
left,1.0,0.75,1,2,0,2,0,0,0,0,0,0,7,7,5,,,,,,,,,,,,,,,10s,1514.039756690152,1515.0413024509326,1515.0329743777402,None,1516.0326964631677,1517.682872720994,1516.0326964631677,1517.682872720994,1517.6742756390013,None,1517.6742756390013,None,space,0.944170004222542,1517.6742756390013,None,1.6431,1518.7480962001719,None,,,,,,,DEC 025*,001,2022_Dec_02_1338,2-25_cond_decay_EYE-try,2021.2.3,119.23851544313774,
left,0.75,1.0,0,2,0,2,0,0,0,0,0,0,8,8,4,,,,,,,,,,,,,,,10s,1519.83332484914,1520.8334230161272,1520.8334230161272,None,1521.8242323030718,1528.641108785756,1521.8242323030718,1528.641108785756,1528.641108785756,None,1528.641108785756,None,space,0.42570297978818417,1528.641108785756,None,6.8159,1529.1911568460055,None,,,,,,,DEC 025*,001,2022_Dec_02_1338,2-25_cond_decay_EYE-try,2021.2.3,119.23851544313774,
right,1.0,0.75,0,2,0,2,0,0,0,0,0,0,9,9,1,,,,,,,,,,,,,,,10s,1530.2901266161352,1531.2917659389786,1531.283153092023,None,1532.2830766667612,1536.4576152111404,1532.2830766667612,1536.4576152111404,1536.4576152111404,None,1536.4576152111404,None,space,0.4863514709286392,1536.4576152111404,None,4.1741,1537.0736285788007,None,,,,,,,DEC 025*,001,2022_Dec_02_1338,2-25_cond_decay_EYE-try,2021.2.3,119.23851544313774,
left,1.0,0.75,1,2,0,2,0,0,0,0,0,1,0,10,5,,,,,,,,,,,,,,,10s,1538.1657064491883,1539.1659928038716,1539.157680139877,None,1540.1499179541133,1543.7332371370867,1540.1499179541133,1543.7332371370867,1543.7332371370867,1544.7329445681535,1543.7332371370867,1544.7329445681535,None,,1543.7332371370867,1544.7329445681535,3.5822,1544.8651627181098,None,,,,,,,DEC 025*,001,2022_Dec_02_1338,2-25_cond_decay_EYE-try,2021.2.3,119.23851544313774,
left,0.75,1.0,0,2,0,2,0,0,0,0,0,1,1,11,0,,,,,,,,,,,,,,,10s,1545.949427341111,1546.9502566978335,1546.9420715649612,None,1547.9412696878426,1556.3665796150453,1547.9412696878426,1556.3665796150453,1556.3665796150453,None,1556.3665796150453,None,space,0.35221717692911625,1556.3665796150453,None,8.4211,1556.849091726821,None,,,,,,,DEC 025*,001,2022_Dec_02_1338,2-25_cond_decay_EYE-try,2021.2.3,119.23851544313774,
left,0.75,1.0,0,2,0,2,0,0,0,0,0,1,2,12,2,,,,,,,,,,,,,,,10s,1557.94021841418,1558.941810397897,1558.9336663568392,None,1559.9330324460752,1567.7669748207554,1559.9330324460752,1567.7669748207554,1567.7669748207554,None,1567.7669748207554,None,space,0.4502964708954096,1567.7669748207554,None,7.8282,1568.3400985477492,None,,,,,,,DEC 025*,001,2022_Dec_02_1338,2-25_cond_decay_EYE-try,2021.2.3,119.23851544313774,
right,1.0,0.75,0,2,0,2,0,0,0,0,0,1,3,13,3,,,,,,,,,,,,,,,10s,1569.4401113688946,1570.4420549171045,1570.4336547260173,None,1571.4331894479692,1577.9756393311545,1571.4331894479692,1577.9756393311545,1577.9756393311545,None,1577.9756393311545,None,space,0.45022230688482523,1577.9756393311545,None,6.5412,1578.5503522558138,None,,,,,,,DEC 025*,001,2022_Dec_02_1338,2-25_cond_decay_EYE-try,2021.2.3,119.23851544313774,
left,0.75,1.0,0,2,0,2,0,0,0,0,0,1,4,14,7,,,,,,,,,,,,,,,10s,1579.6493109879084,1580.6506948377937,1580.6424267701805,None,1581.6423798170872,1585.8585027810186,1581.6423798170872,1585.8585027810186,1585.8585027810186,None,1585.8585027810186,None,space,0.46949039585888386,1585.8585027810186,None,4.2158,1586.4568213550374,None,,,,,,,DEC 025*,001,2022_Dec_02_1338,2-25_cond_decay_EYE-try,2021.2.3,119.23851544313774,
right,0.75,1.0,1,2,0,2,0,0,0,0,0,1,5,15,6,,,,,,,,,,,,,,,10s,1587.548527320847,1588.5504110469483,1588.5421783430502,None,1589.5420301929116,1590.4585803830996,1589.5420301929116,1590.4585803830996,1590.4498888938688,None,1590.4498888938688,None,space,0.5111506660468876,1590.4498888938688,None,0.9115,1591.0905251521617,None,,,,,,,DEC 025*,001,2022_Dec_02_1338,2-25_cond_decay_EYE-try,2021.2.3,119.23851544313774,
right,1.0,0.75,0,2,0,2,0,0,0,0,0,1,6,16,8,,,,,,,,,,,,,,,10s,1592.1758787608705,1593.1757134599611,1593.1675913631916,None,1594.1675679418258,1595.9418313391507,1594.1675679418258,1595.9418313391507,1595.9418313391507,None,1595.9418313391507,None,space,0.4192385929636657,1595.9418313391507,None,1.7722,1596.4904519608244,None,,,,,,,DEC 025*,001,2022_Dec_02_1338,2-25_cond_decay_EYE-try,2021.2.3,119.23851544313774,
left,0.75,1.0,0,2,0,2,0,0,0,0,0,1,7,17,4,,,,,,,,,,,,,,,10s,1597.5819256948307,1598.5832939511165,1598.575244532898,None,1599.5752947120927,1607.0832497389056,1599.5752947120927,1607.0832497389056,1607.0832497389056,None,1607.0832497389056,None,space,0.5031744721345603,1607.0832497389056,None,7.5073,1607.7154496647418,None,,,,,,,DEC 025*,001,2022_Dec_02_1338,2-25_cond_decay_EYE-try,2021.2.3,119.23851544313774,
right,1.0,0.75,0,2,0,2,0,0,0,0,0,1,8,18,9,,,,,,,,,,,,,,,10s,1608.8071808768436,1609.8093655370176,1609.7920352150686,None,1610.7921966100112,1616.284095683135,1610.7921966100112,1616.284095683135,1616.284095683135,None,1616.284095683135,None,space,0.4769690749235451,1616.284095683135,None,5.4911,1616.891136759892,None,,,,,,,DEC 025*,001,2022_Dec_02_1338,2-25_cond_decay_EYE-try,2021.2.3,119.23851544313774,
right,1.0,0.75,0,2,0,2,0,0,0,0,0,1,9,19,1,,,,,,,,,,,,,,,10s,1617.9825539570302,1618.9845194369555,1618.9754722737707,None,1619.9761580917984,1625.1834863321856,1619.9761580917984,1625.1834863321856,1625.176049648784,None,1625.176049648784,None,space,0.4169241590425372,1625.176049648784,None,5.2037,1625.7244344009086,None,,,,,,,DEC 025*,001,2022_Dec_02_1338,2-25_cond_decay_EYE-try,2021.2.3,119.23851544313774,
,,,,2,0,2,0,0,0,0,0,,,,,,,,,,,,,,,,,,,,,,,,,,,,,,,,,,,,,,,,,,,,,DEC 025*,001,2022_Dec_02_1338,2-25_cond_decay_EYE-try,2021.2.3,119.23851544313774,
right,1.0,0.75,0,2,0,2,0,1,0,1,0,0,0,0,4,,,,,,,,,1626.6156865889207,None,1626.6156865889207,None,1626.6156865889207,None,5s,1627.716193050146,1628.7170538911596,1628.7012033490464,None,1629.7005677269772,1631.9003345067613,1629.7005677269772,1631.9003345067613,1631.9003345067613,None,1631.9003345067613,None,space,0.35035509802401066,1631.9003345067613,None,2.1998,1632.3831626269966,None,,,,,,,DEC 025*,001,2022_Dec_02_1338,2-25_cond_decay_EYE-try,2021.2.3,119.23851544313774,
right,1.0,0.75,0,2,0,2,0,1,0,1,0,0,1,1,2,,,,,,,,,,,,,,,5s,1633.4673065738752,1634.4668443300761,1634.4589482829906,None,1635.4591393787414,1637.3337606489658,1635.4591393787414,1637.3337606489658,1637.3337606489658,None,1637.3337606489658,None,space,0.4112974517047405,1637.3337606489658,None,1.8696,1637.8743575410917,None,,,,,,,DEC 025*,001,2022_Dec_02_1338,2-25_cond_decay_EYE-try,2021.2.3,119.23851544313774,
right,1.0,0.75,0,2,0,2,0,1,0,1,0,0,2,2,8,,,,,,,,,,,,,,,5s,1638.9664433230646,1639.968034143094,1639.9509217529558,None,1640.9510989361443,1641.2424263260327,1640.9510989361443,1641.2424263260327,1641.2424263260327,None,1641.2424263260327,None,space,0.7195347780361772,1641.2424263260327,None,0.2863,1642.0906839859672,None,,,,,,,DEC 025*,001,2022_Dec_02_1338,2-25_cond_decay_EYE-try,2021.2.3,119.23851544313774,
left,0.75,1.0,0,2,0,2,0,1,0,1,0,0,3,3,9,,,,,,,,,,,,,,,5s,1643.1498190411367,1644.150915638078,1644.1426966581494,None,1645.1425707638264,1645.5086767990142,1645.1425707638264,1645.5086767990142,1645.5086767990142,None,1645.5086767990142,None,space,0.3508912241086364,1645.5086767990142,None,0.3661,1645.9908243021928,None,,,,,,,DEC 025*,001,2022_Dec_02_1338,2-25_cond_decay_EYE-try,2021.2.3,119.23851544313774,
left,0.75,1.0,0,2,0,2,0,1,0,1,0,0,4,4,6,,,,,,,,,,,,,,,5s,1647.0835149469785,1648.0846546608955,1648.0763387428597,None,1649.075882320758,1652.4257130399346,1649.075882320758,1652.4257130399346,1652.4257130399346,None,1652.4257130399346,None,space,0.31937374686822295,1652.4257130399346,None,3.3471,1652.8741382490844,None,,,,,,,DEC 025*,001,2022_Dec_02_1338,2-25_cond_decay_EYE-try,2021.2.3,119.23851544313774,
right,1.0,0.75,0,2,0,2,0,1,0,1,0,0,5,5,0,,,,,,,,,,,,,,,5s,1653.9667808101512,1654.9679563650861,1654.9597159298137,None,1655.9598624077626,1659.62653753208,1655.9598624077626,1659.62653753208,1659.62653753208,None,1659.62653753208,None,space,0.3836029660888016,1659.62653753208,None,3.6665,1660.1342696249485,None,,,,,,,DEC 025*,001,2022_Dec_02_1338,2-25_cond_decay_EYE-try,2021.2.3,119.23851544313774,
right,0.75,1.0,1,2,0,2,0,1,0,1,0,0,6,6,5,,,,,,,,,,,,,,,5s,1661.2335998830386,1662.234765843954,1662.2255544359796,None,1663.2265787110664,1667.9008251279593,1663.2265787110664,1667.9008251279593,1667.9008251279593,None,1667.9008251279593,None,space,0.36988268001005054,1667.9008251279593,None,4.6755,1668.399644961115,None,,,,,,,DEC 025*,001,2022_Dec_02_1338,2-25_cond_decay_EYE-try,2021.2.3,119.23851544313774,
left,1.0,0.75,1,2,0,2,0,1,0,1,0,0,7,7,1,,,,,,,,,,,,,,,5s,1669.5003642118536,1670.5012734099291,1670.4928158121184,None,1671.4923138311133,1675.2760528158396,1671.4923138311133,1675.2760528158396,1675.2673960970715,None,1675.2673960970715,None,space,0.3764213430695236,1675.2673960970715,None,3.7809,1675.7680756589398,None,,,,,,,DEC 025*,001,2022_Dec_02_1338,2-25_cond_decay_EYE-try,2021.2.3,119.23851544313774,
left,0.75,1.0,0,2,0,2,0,1,0,1,0,0,8,8,7,,,,,,,,,,,,,,,5s,1676.8600601968355,1677.859131836798,1677.8508137618192,None,1678.8507727547549,1679.5429172147997,1678.8507727547549,1679.5429172147997,1679.5429172147997,None,1679.5429172147997,None,space,0.5002292701974511,1679.5429172147997,None,0.6888,1680.1749990168028,None,,,,,,,DEC 025*,001,2022_Dec_02_1338,2-25_cond_decay_EYE-try,2021.2.3,119.23851544313774,
right,1.0,0.75,0,2,0,2,0,1,0,1,0,0,9,9,3,,,,,,,,,,,,,,,5s,1681.2663033860736,1682.268518595025,1682.2515031220391,None,1683.2509798458777,1685.4933636421338,1683.2509798458777,1685.4933636421338,1685.4933636421338,None,1685.4933636421338,None,space,0.30833361204713583,1685.4933636421338,None,2.2344,1685.9256862588227,None,,,,,,,DEC 025*,001,2022_Dec_02_1338,2-25_cond_decay_EYE-try,2021.2.3,119.23851544313774,
left,0.75,1.0,0,2,0,2,0,1,0,1,0,1,0,10,4,,,,,,,,,,,,,,,5s,1687.0245402338915,1688.0260668941773,1688.017588077113,None,1689.0181130189449,1692.7519305418245,1689.0181130189449,1692.7519305418245,1692.7431619889103,1693.7434977861121,1692.7431619889103,1693.7434977861121,None,,1692.7431619889103,1693.7434977861121,3.7309,1693.8751302408054,None,,,,,,,DEC 025*,001,2022_Dec_02_1338,2-25_cond_decay_EYE-try,2021.2.3,119.23851544313774,
right,1.0,0.75,0,2,0,2,0,1,0,1,0,1,1,11,8,,,,,,,,,,,,,,,5s,1694.9675316750072,1695.9682282321155,1695.9599091480486,None,1696.960156769026,1697.3101638429798,1696.960156769026,1697.3101638429798,1697.3015030301176,None,1697.3015030301176,None,space,0.394711802713573,1697.3015030301176,None,0.3435,1697.82473276183,None,,,,,,,DEC 025*,001,2022_Dec_02_1338,2-25_cond_decay_EYE-try,2021.2.3,119.23851544313774,
right,1.0,0.75,0,2,0,2,0,1,0,1,0,1,2,12,0,,,,,,,,,,,,,,,5s,1698.9168919287622,1699.9181414321065,1699.9095711121336,None,1700.9102953351103,1704.79360643588,1700.9102953351103,1704.79360643588,1704.79360643588,None,1704.79360643588,None,space,0.36678428295999765,1704.79360643588,None,3.884,1705.2841905518435,None,,,,,,,DEC 025*,001,2022_Dec_02_1338,2-25_cond_decay_EYE-try,2021.2.3,119.23851544313774,
left,0.75,1.0,0,2,0,2,0,1,0,1,0,1,3,13,6,,,,,,,,,,,,,,,5s,1706.3836066829972,1707.3853732957505,1707.3765780618414,None,1708.3760527078994,1712.285238146782,1708.3760527078994,1712.285238146782,1712.285238146782,None,1712.285238146782,None,space,0.41863394202664495,1712.285238146782,None,3.9082,1712.8333270121366,None,,,,,,,DEC 025*,001,2022_Dec_02_1338,2-25_cond_decay_EYE-try,2021.2.3,119.23851544313774,
right,0.75,1.0,1,2,0,2,0,1,0,1,0,1,4,14,5,,,,,,,,,,,,,,,5s,1713.9256131849252,1714.9271188140847,1714.9181392630562,None,1715.9180293930694,1718.7350055188872,1715.9180293930694,1718.7350055188872,1718.726366281975,1719.7267329408787,1718.726366281975,1719.7267329408787,None,,1718.726366281975,1719.7267329408787,2.811,1719.8589767897502,None,,,,,,,DEC 025*,001,2022_Dec_02_1338,2-25_cond_decay_EYE-try,2021.2.3,119.23851544313774,
right,1.0,0.75,0,2,0,2,0,1,0,1,0,1,5,15,3,,,,,,,,,,,,,,,5s,1720.9505967129953,1721.95230777096,1721.9347386378795,None,1722.934586519841,1726.2687753350474,1722.934586519841,1726.2687753350474,1726.2687753350474,None,1726.2687753350474,None,space,0.38380752224475145,1726.2687753350474,None,3.329,1726.78360914113,None,,,,,,,DEC 025*,001,2022_Dec_02_1338,2-25_cond_decay_EYE-try,2021.2.3,119.23851544313774,
left,0.75,1.0,0,2,0,2,0,1,0,1,0,1,6,16,7,,,,,,,,,,,,,,,5s,1727.8769389120862,1728.876520710066,1728.8680760869756,None,1729.868830373045,1732.3435455327854,1729.868830373045,1732.3435455327854,1732.3435455327854,None,1732.3435455327854,None,space,0.3270871420390904,1732.3435455327854,None,2.4716,1732.8011493701488,None,,,,,,,DEC 025*,001,2022_Dec_02_1338,2-25_cond_decay_EYE-try,2021.2.3,119.23851544313774,
left,1.0,0.75,1,2,0,2,0,1,0,1,0,1,7,17,1,,,,,,,,,,,,,,,5s,1733.8839142601937,1734.884854610078,1734.8773738341406,None,1735.8766933539882,1736.5350520038046,1735.8766933539882,1736.5350520038046,1736.5350520038046,None,1736.5350520038046,None,space,0.4251359459012747,1736.5350520038046,None,0.6595,1737.0841590459459,None,,,,,,,DEC 025*,001,2022_Dec_02_1338,2-25_cond_decay_EYE-try,2021.2.3,119.23851544313774,
left,0.75,1.0,0,2,0,2,0,1,0,1,0,1,8,18,9,,,,,,,,,,,,,,,5s,1738.1760283089243,1739.1766607607715,1739.1683543431573,None,1740.16882157512,1740.5355061017908,1740.16882157512,1740.5355061017908,1740.5355061017908,None,1740.5355061017908,None,space,0.335270837880671,1740.5355061017908,None,0.3624,1741.0002939170226,None,,,,,,,DEC 025*,001,2022_Dec_02_1338,2-25_cond_decay_EYE-try,2021.2.3,119.23851544313774,
right,1.0,0.75,0,2,0,2,0,1,0,1,0,1,9,19,2,,,,,,,,,,,,,,,5s,1742.0668529607356,1743.0684525198303,1743.0604409677908,None,1744.0608483841643,1749.0183332841843,1744.0608483841643,1749.0183332841843,1749.0098150428385,None,1749.0098150428385,None,space,0.32838648883625865,1749.0098150428385,None,4.9566,1749.46785275219,None,,,,,,,DEC 025*,001,2022_Dec_02_1338,2-25_cond_decay_EYE-try,2021.2.3,119.23851544313774,
,,,,2,0,2,0,1,0,1,0,,,,,,,,,,,,,,,,,,,,,,,,,,,,,,,,,,,,,,,,,,,,,DEC 025*,001,2022_Dec_02_1338,2-25_cond_decay_EYE-try,2021.2.3,119.23851544313774,
right,1.0,0.75,0,2,0,2,0,2,0,2,0,0,0,0,7,,,,,,,,,1750.358692620881,None,1750.358692620881,None,1750.358692620881,None,1s,1751.0426615718752,1752.0437549999915,1752.0264979819767,None,1753.0275451298803,1753.8524838187732,1753.0275451298803,1753.8524838187732,1753.8524838187732,None,1753.8524838187732,None,space,0.30055843712762,1753.8524838187732,None,0.8249,1754.2843348630704,None,,,,,,,DEC 025*,001,2022_Dec_02_1338,2-25_cond_decay_EYE-try,2021.2.3,119.23851544313774,
right,1.0,0.75,0,2,0,2,0,2,0,2,0,0,1,1,5,,,,,,,,,,,,,,,1s,1755.3688587858342,1756.3685614811257,1756.3604490831494,None,1757.360200629104,1758.076859662775,1757.360200629104,1758.076859662775,1758.076859662775,None,1758.076859662775,None,space,0.32603647420182824,1758.076859662775,None,0.713,1758.5267620421946,None,,,,,,,DEC 025*,001,2022_Dec_02_1338,2-25_cond_decay_EYE-try,2021.2.3,119.23851544313774,
right,1.0,0.75,0,2,0,2,0,2,0,2,0,0,2,2,2,,,,,,,,,,,,,,,1s,1759.6259430218488,1760.6265841447748,1760.6104101431556,None,1761.610100987833,1761.9026228790171,1761.610100987833,1761.9026228790171,1761.9026228790171,None,1761.9026228790171,None,space,0.36008409690111876,1761.9026228790171,None,0.2863,1762.3927221009508,None,,,,,,,DEC 025*,001,2022_Dec_02_1338,2-25_cond_decay_EYE-try,2021.2.3,119.23851544313774,
left,1.0,0.75,1,2,0,2,0,2,0,2,0,0,3,3,1,,,,,,,,,,,,,,,1s,1763.4837463749573,1764.4856642708182,1764.477038637735,None,1765.4773934180848,1765.7442287257873,1765.4773934180848,1765.7442287257873,1765.735481924843,None,1765.735481924843,None,space,0.38540998892858624,1765.735481924843,None,0.2663,1766.25058312295,None,,,,,,,DEC 025*,001,2022_Dec_02_1338,2-25_cond_decay_EYE-try,2021.2.3,119.23851544313774,
right,0.75,1.0,1,2,0,2,0,2,0,2,0,0,4,4,3,,,,,,,,,,,,,,,1s,1767.3438503160141,1768.3434123587795,1768.3354399590753,None,1769.335318745114,1769.4855184499174,1769.335318745114,1769.4855184499174,1769.4855184499174,None,1769.4855184499174,None,space,0.394441707059741,1769.4855184499174,None,0.1502,1770.009432055056,None,,,,,,,DEC 025*,001,2022_Dec_02_1338,2-25_cond_decay_EYE-try,2021.2.3,119.23851544313774,
left,0.75,1.0,0,2,0,2,0,2,0,2,0,0,5,5,0,,,,,,,,,,,,,,,1s,1771.1012755287811,1772.1020088889636,1772.0858385181054,None,1773.085189039819,1773.9690004778095,1773.085189039819,1773.9690004778095,1773.9690004778095,None,1773.9690004778095,None,space,0.3269277638755739,1773.9690004778095,None,0.8806,1774.425959689077,None,,,,,,,DEC 025*,001,2022_Dec_02_1338,2-25_cond_decay_EYE-try,2021.2.3,119.23851544313774,
right,1.0,0.75,0,2,0,2,0,2,0,2,0,0,6,6,4,,,,,,,,,,,,,,,1s,1775.5263313939795,1776.5272831758484,1776.5188611368649,None,1777.5194102800451,1777.9269015491009,1777.5194102800451,1777.9269015491009,1777.9194060550071,None,1777.9194060550071,None,space,0.38545039715245366,1777.9194060550071,None,0.4042,1778.434468050953,None,,,,,,,DEC 025*,001,2022_Dec_02_1338,2-25_cond_decay_EYE-try,2021.2.3,119.23851544313774,
right,1.0,0.75,0,2,0,2,0,2,0,2,0,0,7,7,8,,,,,,,,,,,,,,,1s,1779.5261618597433,1780.527360667009,1780.519087140914,None,1781.519239088986,1782.327606161125,1781.519239088986,1782.327606161125,1782.3196657467633,None,1782.3196657467633,None,space,0.3101624078117311,1782.3196657467633,None,0.8057,1782.7589606158435,None,,,,,,,DEC 025*,001,2022_Dec_02_1338,2-25_cond_decay_EYE-try,2021.2.3,119.23851544313774,
left,0.75,1.0,0,2,0,2,0,2,0,2,0,0,8,8,6,,,,,,,,,,,,,,,1s,1783.852088210173,1784.8521385788918,1784.8438562671654,None,1785.8435405311175,1786.3356567970477,1785.8435405311175,1786.3356567970477,1786.3356567970477,None,1786.3356567970477,None,space,0.2938447701744735,1786.3356567970477,None,0.491,1786.7591005768627,None,,,,,,,DEC 025*,001,2022_Dec_02_1338,2-25_cond_decay_EYE-try,2021.2.3,119.23851544313774,
left,0.75,1.0,0,2,0,2,0,2,0,2,0,0,9,9,9,,,,,,,,,,,,,,,1s,1787.851237480063,1788.8521644719876,1788.8438476719894,None,1789.8439969387837,1790.2359098601155,1789.8439969387837,1790.2359098601155,1790.2273519518785,None,1790.2273519518785,None,space,0.3750590872950852,1790.2273519518785,None,0.3885,1790.7278388519771,None,,,,,,,DEC 025*,001,2022_Dec_02_1338,2-25_cond_decay_EYE-try,2021.2.3,119.23851544313774,
left,0.75,1.0,0,2,0,2,0,2,0,2,0,1,0,10,9,,,,,,,,,,,,,,,1s,1791.8256689668633,1792.827013507951,1792.818820108194,None,1793.8188783680089,1794.4270066320896,1793.8188783680089,1794.4270066320896,1794.4270066320896,None,1794.4270066320896,None,space,0.3179182317107916,1794.4270066320896,None,0.6067,1794.8760546967387,None,,,,,,,DEC 025*,001,2022_Dec_02_1338,2-25_cond_decay_EYE-try,2021.2.3,119.23851544313774,
right,0.75,1.0,1,2,0,2,0,2,0,2,0,1,1,11,3,,,,,,,,,,,,,,,1s,1795.9760356210172,1796.9770828969777,1796.9606611998752,None,1797.9608085430227,1798.4694918030873,1797.9608085430227,1798.4694918030873,1798.4607007210143,None,1798.4607007210143,None,space,0.36913251876831055,1798.4607007210143,None,0.5011,1798.959185339976,None,,,,,,,DEC 025*,001,2022_Dec_02_1338,2-25_cond_decay_EYE-try,2021.2.3,119.23851544313774,
left,1.0,0.75,1,2,0,2,0,2,0,2,0,1,2,12,1,,,,,,,,,,,,,,,1s,1800.0512436018325,1801.0523524847813,1801.03620961681,None,1802.03614541376,1802.2690142500214,1802.03614541376,1802.2690142500214,1802.2690142500214,None,1802.2690142500214,None,space,0.36942805303260684,1802.2690142500214,None,0.2261,1802.767988866195,None,,,,,,,DEC 025*,001,2022_Dec_02_1338,2-25_cond_decay_EYE-try,2021.2.3,119.23851544313774,
right,1.0,0.75,0,2,0,2,0,2,0,2,0,1,3,13,8,,,,,,,,,,,,,,,1s,1803.8614455880597,1804.861031722743,1804.8531467788853,None,1805.8520991900004,1806.7695803479291,1805.8520991900004,1806.7695803479291,1806.7695803479291,None,1806.7695803479291,None,space,0.343289737123996,1806.7695803479291,None,0.9148,1807.2430593590252,None,,,,,,,DEC 025*,001,2022_Dec_02_1338,2-25_cond_decay_EYE-try,2021.2.3,119.23851544313774,
left,0.75,1.0,0,2,0,2,0,2,0,2,0,1,4,14,0,,,,,,,,,,,,,,,1s,1808.3018025341444,1809.3029080647975,1809.2940783631057,None,1810.2939159120433,1811.2607259079814,1810.2939159120433,1811.2607259079814,1811.2607259079814,None,1811.2607259079814,None,space,0.32608266174793243,1811.2607259079814,None,0.9654,1811.718204475008,None,,,,,,,DEC 025*,001,2022_Dec_02_1338,2-25_cond_decay_EYE-try,2021.2.3,119.23851544313774,
right,1.0,0.75,0,2,0,2,0,2,0,2,0,1,5,15,2,,,,,,,,,,,,,,,1s,1812.8114389861003,1813.8108401740901,1813.802591286134,None,1814.8029656028375,1815.169655543752,1814.8029656028375,1815.169655543752,1815.1607782170177,None,1815.1607782170177,None,space,0.46974462177604437,1815.1607782170177,None,0.3595,1815.7602589381859,None,,,,,,,DEC 025*,001,2022_Dec_02_1338,2-25_cond_decay_EYE-try,2021.2.3,119.23851544313774,
left,0.75,1.0,0,2,0,2,0,2,0,2,0,1,6,16,6,,,,,,,,,,,,,,,1s,1816.8517672717571,1817.8526970930398,1817.8446566578932,None,1818.8445708341897,1819.8112298217602,1818.8445708341897,1819.8112298217602,1819.8026593900286,None,1819.8026593900286,None,space,0.3427789402194321,1819.8026593900286,None,0.9606,1820.2692689411342,None,,,,,,,DEC 025*,001,2022_Dec_02_1338,2-25_cond_decay_EYE-try,2021.2.3,119.23851544313774,
left,0.75,1.0,0,2,0,2,0,2,0,2,0,1,7,17,7,,,,,,,,,,,,,,,1s,1821.369840161875,1822.3698277180083,1822.3614879990928,None,1823.3606681819074,1823.6445454871282,1823.3606681819074,1823.6445454871282,1823.6445454871282,None,1823.6445454871282,None,space,0.4353982056491077,1823.6445454871282,None,0.2796,1824.2099999710917,None,,,,,,,DEC 025*,001,2022_Dec_02_1338,2-25_cond_decay_EYE-try,2021.2.3,119.23851544313774,
right,1.0,0.75,0,2,0,2,0,2,0,2,0,1,8,18,5,,,,,,,,,,,,,,,1s,1825.3023401498795,1826.302449009847,1826.294135433156,None,1827.2939677648246,1827.536521248985,1827.2939677648246,1827.536521248985,1827.5278829671443,None,1827.5278829671443,None,space,0.43437267607077956,1827.5278829671443,None,0.2368,1828.0928314928897,None,,,,,,,DEC 025*,001,2022_Dec_02_1338,2-25_cond_decay_EYE-try,2021.2.3,119.23851544313774,
right,1.0,0.75,0,2,0,2,0,2,0,2,0,1,9,19,4,,,,,,,,,,,,,,,1s,1829.1843888428994,1830.1862397091463,1830.1778314141557,None,1831.17751841899,1831.852823405061,1831.17751841899,1831.852823405061,1831.8442692859098,None,1831.8442692859098,None,space,0.3695140420459211,1831.8442692859098,None,0.6684,1832.3429610840976,None,,,,,,,DEC 025*,001,2022_Dec_02_1338,2-25_cond_decay_EYE-try,2021.2.3,119.23851544313774,
,,,,2,0,2,0,2,0,2,0,,,,,,,,,,,,,,,,,,,,,,,,,,,,,,,,,,,,,,,,,,,,,DEC 025*,001,2022_Dec_02_1338,2-25_cond_decay_EYE-try,2021.2.3,119.23851544313774,
left,0.75,1.0,0,2,0,2,0,3,0,3,0,0,0,0,0,,,,,,,,,1833.2348960367963,None,1833.2348960367963,None,1833.2348960367963,None,3s,1834.6185459569097,1835.6195074710995,1835.6033042049967,None,1836.6031488371082,1839.3275073510595,1836.6031488371082,1839.3275073510595,1839.3275073510595,None,1839.3275073510595,None,space,0.2945301039144397,1839.3275073510595,None,2.7248,1839.7518911138177,None,,,,,,,DEC 025*,001,2022_Dec_02_1338,2-25_cond_decay_EYE-try,2021.2.3,119.23851544313774,
left,0.75,1.0,0,2,0,2,0,3,0,3,0,0,1,1,2,,,,,,,,,,,,,,,3s,1840.843474901747,1841.8444823259488,1841.8361727739684,None,1842.8360120737925,1845.527519554831,1842.8360120737925,1845.527519554831,1845.5199470771477,None,1845.5199470771477,None,space,0.4247862370684743,1845.5199470771477,None,2.6865,1846.0694890450686,None,,,,,,,DEC 025*,001,2022_Dec_02_1338,2-25_cond_decay_EYE-try,2021.2.3,119.23851544313774,
left,0.75,1.0,0,2,0,2,0,3,0,3,0,0,2,2,1,,,,,,,,,,,,,,,3s,1847.1617288547568,1848.1614708388224,1848.1532857287675,None,1849.1534630651586,1850.4785961611196,1849.1534630651586,1850.4785961611196,1850.4785961611196,None,1850.4785961611196,None,space,0.4351826589554548,1850.4785961611196,None,1.3184,1851.043845916167,None,,,,,,,DEC 025*,001,2022_Dec_02_1338,2-25_cond_decay_EYE-try,2021.2.3,119.23851544313774,
left,1.0,0.75,1,2,0,2,0,3,0,3,0,0,3,3,9,,,,,,,,,,,,,,,3s,1852.1357932919636,1853.136414156761,1853.1280465419404,None,1854.1286534061655,1854.5281198909506,1854.1286534061655,1854.5281198909506,1854.5281198909506,None,1854.5281198909506,None,space,0.36871901992708445,1854.5281198909506,None,0.3954,1855.0264889458194,None,,,,,,,DEC 025*,001,2022_Dec_02_1338,2-25_cond_decay_EYE-try,2021.2.3,119.23851544313774,
left,0.75,1.0,0,2,0,2,0,3,0,3,0,0,4,4,3,,,,,,,,,,,,,,,3s,1856.1185345589183,1857.120216181036,1857.1115201059729,None,1858.1112019689754,1859.219887245912,1858.1112019689754,1859.219887245912,1859.219887245912,None,1859.219887245912,None,space,0.41072373325005174,1859.219887245912,None,1.1045,1859.7605510931462,None,,,,,,,DEC 025*,001,2022_Dec_02_1338,2-25_cond_decay_EYE-try,2021.2.3,119.23851544313774,
right,1.0,0.75,0,2,0,2,0,3,0,3,0,0,5,5,8,,,,,,,,,,,,,,,3s,1860.8516266318038,1861.8530181427486,1861.845433972776,None,1862.845228889957,1865.0032812831923,1862.845228889957,1865.0032812831923,1864.9947333987802,None,1864.9947333987802,None,space,0.403185595292598,1864.9947333987802,None,2.1559,1865.5270097428001,None,,,,,,,DEC 025*,001,2022_Dec_02_1338,2-25_cond_decay_EYE-try,2021.2.3,119.23851544313774,
right,1.0,0.75,0,2,0,2,0,3,0,3,0,0,6,6,7,,,,,,,,,,,,,,,3s,1866.618714815937,1867.6204777131788,1867.6113044321537,None,1868.611418902874,1871.5447242930532,1868.611418902874,1871.5447242930532,1871.5447242930532,None,1871.5447242930532,None,space,0.3855836121365428,1871.5447242930532,None,2.9333,1872.060389380902,None,,,,,,,DEC 025*,001,2022_Dec_02_1338,2-25_cond_decay_EYE-try,2021.2.3,119.23851544313774,
left,0.75,1.0,0,2,0,2,0,3,0,3,0,0,7,7,5,,,,,,,,,,,,,,,3s,1873.152526059188,1874.1529561001807,1874.1448945570737,None,1875.1449944637716,1875.3871300388128,1875.1449944637716,1875.3871300388128,1875.378373795189,None,1875.378373795189,None,space,0.7358930208720267,1875.378373795189,None,0.2377,1876.2432239111513,None,,,,,,,DEC 025*,001,2022_Dec_02_1338,2-25_cond_decay_EYE-try,2021.2.3,119.23851544313774,
right,0.75,1.0,1,2,0,2,0,3,0,3,0,0,8,8,6,,,,,,,,,,,,,,,3s,1877.3359377630986,1878.3370898971334,1878.3287289198488,None,1879.3287801248953,1881.428960655816,1879.3287801248953,1881.428960655816,1881.4199214549735,None,1881.4199214549735,None,space,0.48638155218213797,1881.4199214549735,None,2.0956,1882.035929406993,None,,,,,,,DEC 025*,001,2022_Dec_02_1338,2-25_cond_decay_EYE-try,2021.2.3,119.23851544313774,
right,1.0,0.75,0,2,0,2,0,3,0,3,0,0,9,9,4,,,,,,,,,,,,,,,3s,1883.1206067837775,1884.1200394458137,1884.1119999159127,None,1885.1120850611478,1887.2530281539075,1885.1120850611478,1887.2530281539075,1887.2530281539075,None,1887.2530281539075,None,space,0.4845904093235731,1887.2530281539075,None,2.1368,1887.869067423977,None,,,,,,,DEC 025*,001,2022_Dec_02_1338,2-25_cond_decay_EYE-try,2021.2.3,119.23851544313774,
left,0.75,1.0,0,2,0,2,0,3,0,3,0,1,0,10,5,,,,,,,,,,,,,,,3s,1888.9604181218892,1889.9621204598807,1889.9539868407883,None,1890.9535705521703,1893.103420234751,1890.9535705521703,1893.103420234751,1893.103420234751,None,1893.103420234751,None,space,0.4337223949842155,1893.103420234751,None,2.1492,1893.6614911728539,None,,,,,,,DEC 025*,001,2022_Dec_02_1338,2-25_cond_decay_EYE-try,2021.2.3,119.23851544313774,
right,1.0,0.75,0,2,0,2,0,3,0,3,0,1,1,11,7,,,,,,,,,,,,,,,3s,1894.7607686608098,1895.7613906878978,1895.7540417630225,None,1896.7538894377649,1898.6620296677575,1896.7538894377649,1898.6620296677575,1898.6620296677575,None,1898.6620296677575,None,space,0.418955204077065,1898.6620296677575,None,1.9048,1899.2105152718723,None,,,,,,,DEC 025*,001,2022_Dec_02_1338,2-25_cond_decay_EYE-try,2021.2.3,119.23851544313774,
left,1.0,0.75,1,2,0,2,0,3,0,3,0,1,2,12,9,,,,,,,,,,,,,,,3s,1900.3018119181506,1901.3038757750764,1901.2954051280394,None,1902.295472084079,1904.637610363774,1902.295472084079,1904.637610363774,1904.6286746761762,None,1904.6286746761762,None,space,0.4695771378464997,1904.6286746761762,None,2.3361,1905.2272193618119,None,,,,,,,DEC 025*,001,2022_Dec_02_1338,2-25_cond_decay_EYE-try,2021.2.3,119.23851544313774,
left,0.75,1.0,0,2,0,2,0,3,0,3,0,1,3,13,2,,,,,,,,,,,,,,,3s,1906.3194542871788,1907.3199376319535,1907.3120401119813,None,1908.3115987489,1908.9119336958975,1908.3115987489,1908.9119336958975,1908.9119336958975,None,1908.9119336958975,None,space,0.5186738441698253,1908.9119336958975,None,0.5994,1909.5609547281638,None,,,,,,,DEC 025*,001,2022_Dec_02_1338,2-25_cond_decay_EYE-try,2021.2.3,119.23851544313774,
left,0.75,1.0,0,2,0,2,0,3,0,3,0,1,4,14,3,,,,,,,,,,,,,,,3s,1910.652053616941,1911.6538528739475,1911.645573316142,None,1912.6451030438766,1915.2034167381935,1912.6451030438766,1915.2034167381935,1915.2034167381935,None,1915.2034167381935,None,space,0.35872544487938285,1915.2034167381935,None,2.559,1915.6856596078724,None,,,,,,,DEC 025*,001,2022_Dec_02_1338,2-25_cond_decay_EYE-try,2021.2.3,119.23851544313774,
