attn_cue,left_ob,right_ob,congruent,runs.thisRepN,runs.thisTrialN,runs.thisN,runs.thisIndex,blocks.thisRepN,blocks.thisTrialN,blocks.thisN,blocks.thisIndex,trials.thisRepN,trials.thisTrialN,trials.thisN,trials.thisIndex,welcome.started,welcome.stopped,text_2.started,text_2.stopped,init_key_resp.keys,init_key_resp.rt,init_key_resp.started,init_key_resp.stopped,text_3.started,text_3.stopped,text_4.started,text_4.stopped,text_5.started,text_5.stopped,block_num,texter.started,texter.stopped,cross.started,cross.stopped,left_star.started,left_star.stopped,right_star.started,right_star.stopped,left_2.started,left_2.stopped,right_2.started,right_2.stopped,key_resp.keys,key_resp.rt,key_resp.started,key_resp.stopped,Rand Tim,text.started,text.stopped,end.started,end.stopped,text_6.started,text_6.stopped,text_7.started,text_7.stopped,participant,session,date,expName,psychopyVersion,frameRate,
,,,,,,,,,,,,,,,,166.85139510314912,None,166.85139510314912,None,space,4.2045830730348825,166.85139510314912,None,,,,,,,,,,,,,,,,,,,,,,,,,,,,,,,,,DEC020,001,2022_Nov_11_1440,2-25_cond_decay_EYE-try,2021.2.3,120.12949089970363,
left,0.75,1.0,0,0,0,0,0,0,0,0,0,0,0,0,2,,,,,,,,,171.07620308897458,None,171.07620308897458,None,171.07620308897458,None,1s,173.4188939910382,174.41987073607743,174.40261332201771,None,175.41155333793722,175.81114154099487,175.41155333793722,175.81114154099487,175.8033033311367,None,175.8033033311367,None,space,0.3587530718650669,175.8033033311367,None,0.3936,176.30128936702386,None,,,,,,,DEC020,001,2022_Nov_11_1440,2-25_cond_decay_EYE-try,2021.2.3,120.12949089970363,
right,1.0,0.75,0,0,0,0,0,0,0,0,0,0,1,1,8,,,,,,,,,,,,,,,1s,177.35968711413443,178.36150521109812,178.34435083996505,None,179.34472418995574,179.9945048149675,179.34472418995574,179.9945048149675,179.9945048149675,None,179.9945048149675,None,space,0.27558268909342587,179.9945048149675,None,0.6512,180.4020099909976,None,,,,,,,DEC020,001,2022_Nov_11_1440,2-25_cond_decay_EYE-try,2021.2.3,120.12949089970363,
left,0.75,1.0,0,0,0,0,0,0,0,0,0,0,2,2,9,,,,,,,,,,,,,,,1s,181.4604163269978,182.46174995508045,182.45254056411795,None,183.4526796869468,184.3776080161333,183.4526796869468,184.3776080161333,184.3776080161333,None,184.3776080161333,None,space,0.2860370159614831,184.3776080161333,None,0.923,184.7934667051304,None,,,,,,,DEC020,001,2022_Nov_11_1440,2-25_cond_decay_EYE-try,2021.2.3,120.12949089970363,
right,1.0,0.75,0,0,0,0,0,0,0,0,0,0,3,3,0,,,,,,,,,,,,,,,1s,185.8519791739527,186.8533165170811,186.84442632994615,None,187.84486214793287,188.6867617580574,187.84486214793287,188.6867617580574,188.6867617580574,None,188.6867617580574,None,space,0.30149480188265443,188.6867617580574,None,0.8366,189.1182512419764,None,,,,,,,DEC020,001,2022_Nov_11_1440,2-25_cond_decay_EYE-try,2021.2.3,120.12949089970363,
right,1.0,0.75,0,0,0,0,0,0,0,0,0,0,4,4,6,,,,,,,,,,,,,,,1s,190.1762854801491,191.17850700905547,191.16141311614774,None,192.161222133087,192.92833369015716,192.161222133087,192.92833369015716,192.92833369015716,None,192.92833369015716,None,space,0.2852610789705068,192.92833369015716,None,0.762,193.34299344406463,None,,,,,,,DEC020,001,2022_Nov_11_1440,2-25_cond_decay_EYE-try,2021.2.3,120.12949089970363,
left,0.75,1.0,0,0,0,0,0,0,0,0,0,0,5,5,5,,,,,,,,,,,,,,,1s,194.402321892092,195.40340933110565,195.3944161310792,None,196.39521657512523,197.20304212300107,196.39521657512523,197.20304212300107,197.19428910198621,None,197.19428910198621,None,space,0.3094493020325899,197.19428910198621,None,0.8047,197.63523345906287,None,,,,,,,DEC020,001,2022_Nov_11_1440,2-25_cond_decay_EYE-try,2021.2.3,120.12949089970363,
left,0.75,1.0,0,0,0,0,0,0,0,0,0,0,6,6,7,,,,,,,,,,,,,,,1s,198.686445617117,199.68638340500183,199.6783266540151,None,200.67857134714723,201.47864411701448,200.67857134714723,201.47864411701448,201.47864411701448,None,201.47864411701448,None,space,0.25848779804073274,201.47864411701448,None,0.7959,201.86898630694486,None,,,,,,,DEC020,001,2022_Nov_11_1440,2-25_cond_decay_EYE-try,2021.2.3,120.12949089970363,
left,0.75,1.0,0,0,0,0,0,0,0,0,0,0,7,7,3,,,,,,,,,,,,,,,1s,202.91840071114711,203.92024661507457,203.91195596707985,None,204.90328542911448,205.07794291013852,204.90328542911448,205.07794291013852,205.07794291013852,None,205.07794291013852,None,space,0.4424854149110615,205.07794291013852,None,0.1689,205.65238397195935,None,,,,,,,DEC020,001,2022_Nov_11_1440,2-25_cond_decay_EYE-try,2021.2.3,120.12949089970363,
right,1.0,0.75,0,0,0,0,0,0,0,0,0,0,8,8,4,,,,,,,,,,,,,,,1s,206.710193824023,207.71183890406974,207.70351429400034,None,208.7028129431419,208.9283622719813,208.7028129431419,208.9283622719813,208.9283622719813,None,208.9283622719813,None,space,0.3424966831225902,208.9283622719813,None,0.2259,209.40192692214623,None,,,,,,,DEC020,001,2022_Nov_11_1440,2-25_cond_decay_EYE-try,2021.2.3,120.12949089970363,
left,1.0,0.75,1,0,0,0,0,0,0,0,0,0,9,9,1,,,,,,,,,,,,,,,1s,210.4597915499471,211.46116215293296,211.45307499100454,None,212.45319301006384,213.26211375300772,212.45319301006384,213.26211375300772,213.26211375300772,None,213.26211375300772,None,space,0.7182826839853078,213.26211375300772,None,0.8073,214.11019498412497,None,,,,,,,DEC020,001,2022_Nov_11_1440,2-25_cond_decay_EYE-try,2021.2.3,120.12949089970363,
right,0.75,1.0,1,0,0,0,0,0,0,0,0,1,0,10,2,,,,,,,,,,,,,,,1s,215.16896860394627,216.1702314100694,216.16183357615955,None,217.1620330750011,217.63644268806092,217.1620330750011,217.63644268806092,217.63644268806092,None,217.63644268806092,None,space,0.5273015869315714,217.63644268806092,None,0.4741,218.2932484941557,None,,,,,,,DEC020,001,2022_Nov_11_1440,2-25_cond_decay_EYE-try,2021.2.3,120.12949089970363,
right,1.0,0.75,0,0,0,0,0,0,0,0,0,1,1,11,8,,,,,,,,,,,,,,,1s,219.35196311795153,220.3536564980168,220.34514459199272,None,221.3449346111156,221.7040485739708,221.3449346111156,221.7040485739708,221.69539115112275,None,221.69539115112275,None,space,0.41640867781825364,221.69539115112275,None,0.3555,222.24376757303253,None,,,,,,,DEC020,001,2022_Nov_11_1440,2-25_cond_decay_EYE-try,2021.2.3,120.12949089970363,
left,0.75,1.0,0,0,0,0,0,0,0,0,0,1,2,12,3,,,,,,,,,,,,,,,1s,223.30239378800616,224.30296554998495,224.28679051296785,None,225.2870689900592,225.71978819696233,225.2870689900592,225.71978819696233,225.71978819696233,None,225.71978819696233,None,space,0.3513996829278767,225.71978819696233,None,0.4325,226.2026042039506,None,,,,,,,DEC020,001,2022_Nov_11_1440,2-25_cond_decay_EYE-try,2021.2.3,120.12949089970363,
left,0.75,1.0,0,0,0,0,0,0,0,0,0,1,3,13,5,,,,,,,,,,,,,,,1s,227.26105193397962,228.26234768005088,228.24470873293467,None,229.24557863804512,229.5538402320817,229.24557863804512,229.5538402320817,229.5538402320817,None,229.5538402320817,None,space,0.3086377519648522,229.5538402320817,None,0.3069,229.9941417160444,None,,,,,,,DEC020,001,2022_Nov_11_1440,2-25_cond_decay_EYE-try,2021.2.3,120.12949089970363,
left,0.75,1.0,0,0,0,0,0,0,0,0,0,1,4,14,7,,,,,,,,,,,,,,,1s,231.0517442720011,232.05411755805835,232.04498761310242,None,233.03667557099834,233.46969860396348,233.03667557099834,233.46969860396348,233.46969860396348,None,233.46969860396348,None,space,0.2782013160176575,233.46969860396348,None,0.43,233.87740018498152,None,,,,,,,DEC020,001,2022_Nov_11_1440,2-25_cond_decay_EYE-try,2021.2.3,120.12949089970363,
right,1.0,0.75,0,0,0,0,0,0,0,0,0,1,5,15,4,,,,,,,,,,,,,,,1s,234.93615575507283,235.93696683296002,235.92876469506882,None,236.92881703213789,237.64476376702078,236.92881703213789,237.64476376702078,237.6372218390461,None,237.6372218390461,None,space,0.3523917770944536,237.6372218390461,None,0.7109,238.11844424693845,None,,,,,,,DEC020,001,2022_Nov_11_1440,2-25_cond_decay_EYE-try,2021.2.3,120.12949089970363,
right,1.0,0.75,0,0,0,0,0,0,0,0,0,1,6,16,0,,,,,,,,,,,,,,,1s,239.17757984111086,240.1789861889556,240.1707779581193,None,241.16980499611236,241.62832911801524,241.16980499611236,241.62832911801524,241.62832911801524,None,241.62832911801524,None,space,0.28383360081352293,241.62832911801524,None,0.4578,242.03718726197258,None,,,,,,,DEC020,001,2022_Nov_11_1440,2-25_cond_decay_EYE-try,2021.2.3,120.12949089970363,
left,0.75,1.0,0,0,0,0,0,0,0,0,0,1,7,17,9,,,,,,,,,,,,,,,1s,243.10184158710763,244.103804100072,244.0955048110336,None,245.09483214002103,245.27878995006904,245.09483214002103,245.27878995006904,245.27878995006904,None,245.27878995006904,None,space,0.33578705112449825,245.27878995006904,None,0.1823,245.74362670094706,None,,,,,,,DEC020,001,2022_Nov_11_1440,2-25_cond_decay_EYE-try,2021.2.3,120.12949089970363,
right,1.0,0.75,0,0,0,0,0,0,0,0,0,1,8,18,6,,,,,,,,,,,,,,,1s,246.8025805191137,247.80383278499357,247.78656640695408,None,248.78726558806375,249.45342318806797,248.78726558806375,249.45342318806797,249.45342318806797,None,249.45342318806797,None,space,0.24222162691876292,249.45342318806797,None,0.6613,249.82695758296177,None,,,,,,,DEC020,001,2022_Nov_11_1440,2-25_cond_decay_EYE-try,2021.2.3,120.12949089970363,
left,1.0,0.75,1,0,0,0,0,0,0,0,0,1,9,19,1,,,,,,,,,,,,,,,1s,250.88538330001757,251.8868635641411,251.8788295269478,None,252.87821410503238,253.06179424305446,252.87821410503238,253.06179424305446,253.05415020301007,None,253.05415020301007,None,space,0.685868188040331,253.05415020301007,None,0.177,253.86890074214898,None,,,,,,,DEC020,001,2022_Nov_11_1440,2-25_cond_decay_EYE-try,2021.2.3,120.12949089970363,
,,,,0,0,0,0,0,0,0,0,,,,,,,,,,,,,,,,,,,,,,,,,,,,,,,,,,,,,,,,,,,,,DEC020,001,2022_Nov_11_1440,2-25_cond_decay_EYE-try,2021.2.3,120.12949089970363,
left,0.75,1.0,0,0,0,0,0,1,0,1,0,0,0,0,1,,,,,,,,,254.7610271209851,None,254.7610271209851,None,254.7610271209851,None,3s,256.2857192570809,257.28663789015263,257.278349498054,None,258.27889124793,258.51172935497016,258.27889124793,258.51172935497016,258.51172935497016,None,258.51172935497016,None,space,0.28573545604012907,258.51172935497016,None,0.2323,258.92733868793584,None,,,,,,,DEC020,001,2022_Nov_11_1440,2-25_cond_decay_EYE-try,2021.2.3,120.12949089970363,
right,0.75,1.0,1,0,0,0,0,1,0,1,0,0,1,1,2,,,,,,,,,,,,,,,3s,259.986489583971,260.98669823003,260.97855799109675,None,261.97078895103186,262.66245568497106,261.97078895103186,262.66245568497106,262.66245568497106,None,262.66245568497106,None,space,0.3603266100399196,262.66245568497106,None,0.6866,263.1524926670827,None,,,,,,,DEC020,001,2022_Nov_11_1440,2-25_cond_decay_EYE-try,2021.2.3,120.12949089970363,
right,1.0,0.75,0,0,0,0,0,1,0,1,0,0,2,2,0,,,,,,,,,,,,,,,3s,264.21051875595003,265.21241076802835,265.2042370510753,None,266.19548688293435,267.5040146310348,266.19548688293435,267.5040146310348,267.5040146310348,None,267.5040146310348,None,space,0.3195366580039263,267.5040146310348,None,1.3049,267.95236339606345,None,,,,,,,DEC020,001,2022_Nov_11_1440,2-25_cond_decay_EYE-try,2021.2.3,120.12949089970363,
left,0.75,1.0,0,0,0,0,0,1,0,1,0,0,3,3,6,,,,,,,,,,,,,,,3s,269.01134990900755,270.01237050513737,270.0038789070677,None,271.0043551030103,272.1452395271044,271.0043551030103,272.1452395271044,272.13680308894254,None,272.13680308894254,None,space,0.39242094405926764,272.13680308894254,None,1.1363,272.6611064921599,None,,,,,,,DEC020,001,2022_Nov_11_1440,2-25_cond_decay_EYE-try,2021.2.3,120.12949089970363,
left,1.0,0.75,1,0,0,0,0,1,0,1,0,0,4,4,3,,,,,,,,,,,,,,,3s,273.7109327081125,274.7122938821558,274.69543012510985,None,275.6955511160195,278.60368080600165,275.6955511160195,278.60368080600165,278.60368080600165,None,278.60368080600165,None,space,0.3940335479564965,278.60368080600165,None,2.904,279.1275181870442,None,,,,,,,DEC020,001,2022_Nov_11_1440,2-25_cond_decay_EYE-try,2021.2.3,120.12949089970363,
left,0.75,1.0,0,0,0,0,0,1,0,1,0,0,5,5,5,,,,,,,,,,,,,,,3s,280.1861200821586,281.1874942469876,281.1710971901193,None,282.1702927921433,282.59542403696105,282.1702927921433,282.59542403696105,282.59542403696105,None,282.59542403696105,None,space,0.4362289810087532,282.59542403696105,None,0.4259,283.16066481499,None,,,,,,,DEC020,001,2022_Nov_11_1440,2-25_cond_decay_EYE-try,2021.2.3,120.12949089970363,
left,0.75,1.0,0,0,0,0,0,1,0,1,0,0,6,6,7,,,,,,,,,,,,,,,3s,284.2125690460671,285.2125398700591,285.20438186312094,None,286.2044127860572,288.22087041893974,286.2044127860572,288.22087041893974,288.2122057180386,None,288.2122057180386,None,space,0.3360386430285871,288.2122057180386,None,2.0093,288.6781254350208,None,,,,,,,DEC020,001,2022_Nov_11_1440,2-25_cond_decay_EYE-try,2021.2.3,120.12949089970363,
right,1.0,0.75,0,0,0,0,0,1,0,1,0,0,7,7,8,,,,,,,,,,,,,,,3s,289.73629748704843,290.7371294160839,290.72889963397756,None,291.7292662661057,293.45377215603366,291.7292662661057,293.45377215603366,293.45377215603366,None,293.45377215603366,None,space,0.4699368311557919,293.45377215603366,None,1.7249,294.0530283690896,None,,,,,,,DEC020,001,2022_Nov_11_1440,2-25_cond_decay_EYE-try,2021.2.3,120.12949089970363,
right,1.0,0.75,0,0,0,0,0,1,0,1,0,0,8,8,4,,,,,,,,,,,,,,,3s,295.10478406911716,296.1045235970523,296.0963768721558,None,297.0960784489289,297.8543619259726,297.0960784489289,297.8543619259726,297.8543619259726,None,297.8543619259726,None,space,0.3195182529743761,297.8543619259726,None,0.7524,298.30330675514415,None,,,,,,,DEC020,001,2022_Nov_11_1440,2-25_cond_decay_EYE-try,2021.2.3,120.12949089970363,
left,0.75,1.0,0,0,0,0,0,1,0,1,0,0,9,9,9,,,,,,,,,,,,,,,3s,299.3615032271482,300.3621034901589,300.35402199812233,None,301.3540780241601,302.8295571929775,301.3540780241601,302.8295571929775,302.8295571929775,None,302.8295571929775,None,space,0.283234452130273,302.8295571929775,None,1.4726,303.23801584308967,None,,,,,,,DEC020,001,2022_Nov_11_1440,2-25_cond_decay_EYE-try,2021.2.3,120.12949089970363,
left,0.75,1.0,0,0,0,0,0,1,0,1,0,1,0,10,9,,,,,,,,,,,,,,,3s,304.3026753391605,305.3041239550803,305.2957629819866,None,306.2961176659446,307.19554076110944,306.2961176659446,307.19554076110944,307.19554076110944,None,307.19554076110944,None,space,0.31977959210053086,307.19554076110944,None,0.9005,307.6443921609316,None,,,,,,,DEC020,001,2022_Nov_11_1440,2-25_cond_decay_EYE-try,2021.2.3,120.12949089970363,
left,1.0,0.75,1,0,0,0,0,1,0,1,0,1,1,11,3,,,,,,,,,,,,,,,3s,308.70298572606407,309.7038970300928,309.69564881711267,None,310.6959208671469,312.09620717703365,310.6959208671469,312.09620717703365,312.08748820004985,None,312.08748820004985,None,space,0.39261484681628644,312.08748820004985,None,1.3978,312.6115817150567,None,,,,,,,DEC020,001,2022_Nov_11_1440,2-25_cond_decay_EYE-try,2021.2.3,120.12949089970363,
right,1.0,0.75,0,0,0,0,0,1,0,1,0,1,2,12,8,,,,,,,,,,,,,,,3s,313.66275105811656,314.6631121209357,314.6542052940931,None,315.6544224759564,316.1126155720558,315.6544224759564,316.1126155720558,316.1126155720558,None,316.1126155720558,None,space,0.4086615350097418,316.1126155720558,None,0.4543,316.6532830139622,None,,,,,,,DEC020,001,2022_Nov_11_1440,2-25_cond_decay_EYE-try,2021.2.3,120.12949089970363,
left,0.75,1.0,0,0,0,0,0,1,0,1,0,1,3,13,5,,,,,,,,,,,,,,,3s,317.71137873106636,318.7128511541523,318.704393326072,None,319.7048222851008,322.6210149440449,319.7048222851008,322.6210149440449,322.61237958213314,None,322.61237958213314,None,space,0.36128226900473237,322.61237958213314,None,2.9113,323.10271637514234,None,,,,,,,DEC020,001,2022_Nov_11_1440,2-25_cond_decay_EYE-try,2021.2.3,120.12949089970363,
left,0.75,1.0,0,0,0,0,0,1,0,1,0,1,4,14,6,,,,,,,,,,,,,,,3s,324.1617875690572,325.16289526293986,325.15499626495875,None,326.1550087169744,328.9376231140923,326.1550087169744,328.9376231140923,328.9376231140923,None,328.9376231140923,None,space,0.35124757001176476,328.9376231140923,None,2.7832,329.4195824849885,None,,,,,,,DEC020,001,2022_Nov_11_1440,2-25_cond_decay_EYE-try,2021.2.3,120.12949089970363,
right,1.0,0.75,0,0,0,0,0,1,0,1,0,1,5,15,0,,,,,,,,,,,,,,,3s,330.47874095104635,331.4798957039602,331.4626222071238,None,332.4633048090618,333.5299215009436,332.4633048090618,333.5299215009436,333.5299215009436,None,333.5299215009436,None,space,0.3583219600841403,333.5299215009436,None,1.0638,334.0196021681186,None,,,,,,,DEC020,001,2022_Nov_11_1440,2-25_cond_decay_EYE-try,2021.2.3,120.12949089970363,
right,1.0,0.75,0,0,0,0,0,1,0,1,0,1,6,16,1,,,,,,,,,,,,,,,3s,335.07881948701106,336.0799853790086,336.07085912814364,None,337.071869418025,337.8045006180182,337.071869418025,337.8045006180182,337.7969169919379,None,337.7969169919379,None,space,0.34378093504346907,337.7969169919379,None,0.726,338.2702864881139,None,,,,,,,DEC020,001,2022_Nov_11_1440,2-25_cond_decay_EYE-try,2021.2.3,120.12949089970363,
left,0.75,1.0,0,0,0,0,0,1,0,1,0,1,7,17,7,,,,,,,,,,,,,,,3s,339.3288454939611,340.3297850070521,340.3218577101361,None,341.32144870003685,342.82922888197936,341.32144870003685,342.82922888197936,342.8216219081078,None,342.8216219081078,None,space,0.41029349784366786,342.8216219081078,None,1.5024,343.36226077307947,None,,,,,,,DEC020,001,2022_Nov_11_1440,2-25_cond_decay_EYE-try,2021.2.3,120.12949089970363,
right,1.0,0.75,0,0,0,0,0,1,0,1,0,1,8,18,4,,,,,,,,,,,,,,,3s,344.42026639310643,345.4215315890033,345.41332324501127,None,346.41262510302477,347.75509476009756,346.41262510302477,347.75509476009756,347.75509476009756,None,347.75509476009756,None,space,0.291929273866117,347.75509476009756,None,1.3388,348.1785868529696,None,,,,,,,DEC020,001,2022_Nov_11_1440,2-25_cond_decay_EYE-try,2021.2.3,120.12949089970363,
right,0.75,1.0,1,0,0,0,0,1,0,1,0,1,9,19,2,,,,,,,,,,,,,,,3s,349.2364784940146,350.2377181639895,350.2294489040505,None,351.2294155030977,352.38847555895336,351.2294155030977,352.38847555895336,352.3798338610213,None,352.3798338610213,None,space,0.5086896561551839,352.3798338610213,None,1.1527,353.0136593990028,None,,,,,,,DEC020,001,2022_Nov_11_1440,2-25_cond_decay_EYE-try,2021.2.3,120.12949089970363,
,,,,0,0,0,0,1,0,1,0,,,,,,,,,,,,,,,,,,,,,,,,,,,,,,,,,,,,,,,,,,,,,DEC020,001,2022_Nov_11_1440,2-25_cond_decay_EYE-try,2021.2.3,120.12949089970363,
left,0.75,1.0,0,0,0,0,0,2,0,2,0,0,0,0,0,,,,,,,,,353.9124442320317,None,353.9124442320317,None,353.9124442320317,None,5s,355.1721985221375,356.17155263898894,356.1634165351279,None,357.16277975193225,358.87956508109346,357.16277975193225,358.87956508109346,358.87956508109346,None,358.87956508109346,None,space,0.43664612411521375,358.87956508109346,None,1.7124,359.44587036711164,None,,,,,,,DEC020,001,2022_Nov_11_1440,2-25_cond_decay_EYE-try,2021.2.3,120.12949089970363,
right,1.0,0.75,0,0,0,0,0,2,0,2,0,0,1,1,9,,,,,,,,,,,,,,,5s,360.503958550049,361.5047275419347,361.49617673899047,None,362.4962929501198,365.37970537506044,362.4962929501198,365.37970537506044,365.37970537506044,None,365.37970537506044,None,space,0.34466506796889007,365.37970537506044,None,2.8804,365.8539198450744,None,,,,,,,DEC020,001,2022_Nov_11_1440,2-25_cond_decay_EYE-try,2021.2.3,120.12949089970363,
left,0.75,1.0,0,0,0,0,0,2,0,2,0,0,2,2,4,,,,,,,,,,,,,,,5s,366.91182380495593,367.9137004001532,367.9053080449812,None,368.90442684898153,372.94698052993044,368.90442684898153,372.94698052993044,372.94698052993044,None,372.94698052993044,None,space,0.3692754260264337,372.94698052993044,None,4.0401,373.4451511690859,None,,,,,,,DEC020,001,2022_Nov_11_1440,2-25_cond_decay_EYE-try,2021.2.3,120.12949089970363,
right,0.75,1.0,1,0,0,0,0,2,0,2,0,0,3,3,8,,,,,,,,,,,,,,,5s,374.50423813215457,375.5045553969685,375.4961794510018,None,376.497027768055,378.51371890399605,376.497027768055,378.51371890399605,378.505015111994,None,378.505015111994,None,space,0.36677715298719704,378.505015111994,None,2.0108,379.00396306300536,None,,,,,,,DEC020,001,2022_Nov_11_1440,2-25_cond_decay_EYE-try,2021.2.3,120.12949089970363,
left,0.75,1.0,0,0,0,0,0,2,0,2,0,0,4,4,1,,,,,,,,,,,,,,,5s,380.05332665797323,381.0553968870081,381.0462924800813,None,382.04708458296955,384.97214117413387,382.04708458296955,384.97214117413387,384.9632748621516,None,384.9632748621516,None,space,0.3689903027843684,384.9632748621516,None,2.9222,385.46277017798275,None,,,,,,,DEC020,001,2022_Nov_11_1440,2-25_cond_decay_EYE-try,2021.2.3,120.12949089970363,
left,0.75,1.0,0,0,0,0,0,2,0,2,0,0,5,5,2,,,,,,,,,,,,,,,5s,386.51270250813104,387.51346697309054,387.5053430390544,None,388.50482088606805,392.5801014469471,388.50482088606805,392.5801014469471,392.5801014469471,None,392.5801014469471,None,space,0.3174109640531242,392.5801014469471,None,4.0753,393.0293443601113,None,,,,,,,DEC020,001,2022_Nov_11_1440,2-25_cond_decay_EYE-try,2021.2.3,120.12949089970363,
left,0.75,1.0,0,0,0,0,0,2,0,2,0,0,6,6,7,,,,,,,,,,,,,,,5s,394.08697125012986,395.08888450614177,395.0805403350387,None,396.07980599207804,400.1719531561248,396.07980599207804,400.1719531561248,400.1719531561248,None,400.1719531561248,None,space,0.3523826040327549,400.1719531561248,None,4.0922,400.6537285139784,None,,,,,,,DEC020,001,2022_Nov_11_1440,2-25_cond_decay_EYE-try,2021.2.3,120.12949089970363,
right,1.0,0.75,0,0,0,0,0,2,0,2,0,0,7,7,6,,,,,,,,,,,,,,,5s,401.71269323001616,402.713970157085,402.697025364032,None,403.6970094309654,406.0300093891565,403.6970094309654,406.0300093891565,406.0300093891565,None,406.0300093891565,None,space,0.39176092809066176,406.0300093891565,None,2.3257,406.55372750293463,None,,,,,,,DEC020,001,2022_Nov_11_1440,2-25_cond_decay_EYE-try,2021.2.3,120.12949089970363,
right,1.0,0.75,0,0,0,0,0,2,0,2,0,0,8,8,3,,,,,,,,,,,,,,,5s,407.61197795299813,408.61392394895665,408.59684702404775,None,409.59696238394827,413.11388542107306,409.59696238394827,413.11388542107306,413.11388542107306,None,413.11388542107306,None,space,0.3257751720957458,413.11388542107306,None,3.5162,413.5641555581242,None,,,,,,,DEC020,001,2022_Nov_11_1440,2-25_cond_decay_EYE-try,2021.2.3,120.12949089970363,
left,1.0,0.75,1,0,0,0,0,2,0,2,0,0,9,9,5,,,,,,,,,,,,,,,5s,414.6296189951245,415.63103787903674,415.6219831700437,None,416.62261462700553,420.6137294280343,416.62261462700553,420.6137294280343,420.6137294280343,None,420.6137294280343,None,space,0.3610035388264805,420.6137294280343,None,3.9905,421.10396705311723,None,,,,,,,DEC020,001,2022_Nov_11_1440,2-25_cond_decay_EYE-try,2021.2.3,120.12949089970363,
left,0.75,1.0,0,0,0,0,0,2,0,2,0,1,0,10,4,,,,,,,,,,,,,,,5s,422.1625918780919,423.164136486128,423.15559467999265,None,424.155062824022,425.6386853409931,424.155062824022,425.6386853409931,425.6386853409931,None,425.6386853409931,None,space,0.46778410486876965,425.6386853409931,None,1.4826,426.2372313879896,None,,,,,,,DEC020,001,2022_Nov_11_1440,2-25_cond_decay_EYE-try,2021.2.3,120.12949089970363,
right,1.0,0.75,0,0,0,0,0,2,0,2,0,1,1,11,6,,,,,,,,,,,,,,,5s,427.29556902707554,428.29763725493103,428.2884957510978,None,429.28864063415676,431.7227007751353,429.28864063415676,431.7227007751353,431.7227007751353,None,431.7227007751353,None,space,0.49340662197209895,431.7227007751353,None,2.4335,432.3461264851503,None,,,,,,,DEC020,001,2022_Nov_11_1440,2-25_cond_decay_EYE-try,2021.2.3,120.12949089970363,
left,0.75,1.0,0,0,0,0,0,2,0,2,0,1,2,12,1,,,,,,,,,,,,,,,5s,433.40419556596316,434.4056483840104,434.39739448809996,None,435.3978395680897,437.5311145221349,435.3978395680897,437.5311145221349,437.5225127909798,None,437.5225127909798,None,space,0.341605685884133,437.5225127909798,None,2.1257,437.98929462814704,None,,,,,,,DEC020,001,2022_Nov_11_1440,2-25_cond_decay_EYE-try,2021.2.3,120.12949089970363,
right,1.0,0.75,0,0,0,0,0,2,0,2,0,1,3,13,0,,,,,,,,,,,,,,,5s,439.05473935208283,440.05579139408655,440.0386186421383,None,441.0395624979865,444.1053610921372,441.0395624979865,444.1053610921372,444.1053610921372,None,444.1053610921372,None,space,0.3425728608854115,444.1053610921372,None,3.0625,444.5796875599772,None,,,,,,,DEC020,001,2022_Nov_11_1440,2-25_cond_decay_EYE-try,2021.2.3,120.12949089970363,
left,0.75,1.0,0,0,0,0,0,2,0,2,0,1,4,14,2,,,,,,,,,,,,,,,5s,445.6384972780943,446.6396477050148,446.6304346290417,None,447.63040531100705,449.4646346599329,447.63040531100705,449.4646346599329,449.45608597202227,None,449.45608597202227,None,space,0.8275892820674926,449.45608597202227,None,1.8271,450.41281569213606,None,,,,,,,DEC020,001,2022_Nov_11_1440,2-25_cond_decay_EYE-try,2021.2.3,120.12949089970363,
right,1.0,0.75,0,0,0,0,0,2,0,2,0,1,5,15,9,,,,,,,,,,,,,,,5s,451.4708323199302,452.47245315811597,452.45637195999734,None,453.4554583770223,457.1391594160814,453.4554583770223,457.1391594160814,457.1391594160814,None,457.1391594160814,None,space,0.3609731791075319,457.1391594160814,None,3.681,457.62987895612605,None,,,,,,,DEC020,001,2022_Nov_11_1440,2-25_cond_decay_EYE-try,2021.2.3,120.12949089970363,
left,1.0,0.75,1,0,0,0,0,2,0,2,0,1,6,16,5,,,,,,,,,,,,,,,5s,458.68834783299826,459.689522532979,459.68109920504503,None,460.6811952400021,464.606137256138,460.6811952400021,464.606137256138,464.606137256138,None,464.606137256138,None,space,0.4002604130655527,464.606137256138,None,3.9252,465.1380197929684,None,,,,,,,DEC020,001,2022_Nov_11_1440,2-25_cond_decay_EYE-try,2021.2.3,120.12949089970363,
left,0.75,1.0,0,0,0,0,0,2,0,2,0,1,7,17,7,,,,,,,,,,,,,,,5s,466.1894020999316,467.18930877302773,467.1810043840669,None,468.1811102931388,472.2644614209421,468.1811102931388,472.2644614209421,472.2644614209421,None,472.2644614209421,None,space,0.36721934494562447,472.2644614209421,None,4.0777,472.7638559830375,None,,,,,,,DEC020,001,2022_Nov_11_1440,2-25_cond_decay_EYE-try,2021.2.3,120.12949089970363,
right,0.75,1.0,1,0,0,0,0,2,0,2,0,1,8,18,8,,,,,,,,,,,,,,,5s,473.8213447891176,474.8232092510443,474.81411743699573,None,475.8141266191378,478.9979598140344,475.8141266191378,478.9979598140344,478.9979598140344,None,478.9979598140344,None,space,0.4169185170903802,478.9979598140344,None,3.1819,479.53986860695295,None,,,,,,,DEC020,001,2022_Nov_11_1440,2-25_cond_decay_EYE-try,2021.2.3,120.12949089970363,
right,1.0,0.75,0,0,0,0,0,2,0,2,0,1,9,19,3,,,,,,,,,,,,,,,5s,480.59638222609647,481.5981083200313,481.5899154271465,None,482.589065623004,484.9229851120617,482.589065623004,484.9229851120617,484.91426145099103,None,484.91426145099103,None,space,0.4115023440681398,484.91426145099103,None,2.3304,485.45518824714236,None,,,,,,,DEC020,001,2022_Nov_11_1440,2-25_cond_decay_EYE-try,2021.2.3,120.12949089970363,
,,,,0,0,0,0,2,0,2,0,,,,,,,,,,,,,,,,,,,,,,,,,,,,,,,,,,,,,,,,,,,,,DEC020,001,2022_Nov_11_1440,2-25_cond_decay_EYE-try,2021.2.3,120.12949089970363,
left,0.75,1.0,0,0,0,0,0,3,0,3,0,0,0,0,1,,,,,,,,,486.34645005501807,None,486.34645005501807,None,486.34645005501807,None,10s,488.5888485410251,489.5900947730988,489.5818261380773,None,490.5817796981428,495.4142742420081,490.5817796981428,495.4142742420081,495.4142742420081,None,495.4142742420081,None,space,0.43382680392824113,495.4142742420081,None,4.8299,495.98036981001496,None,,,,,,,DEC020,001,2022_Nov_11_1440,2-25_cond_decay_EYE-try,2021.2.3,120.12949089970363,
left,1.0,0.75,1,0,0,0,0,3,0,3,0,0,1,1,0,,,,,,,,,,,,,,,10s,497.0310898090247,498.03086775401607,498.02296496299095,None,499.02275737794116,502.4475897520315,499.02275737794116,502.4475897520315,502.4475897520315,None,502.4475897520315,None,None,,502.4475897520315,None,3.4249,503.5797097000759,None,,,,,,,DEC020,001,2022_Nov_11_1440,2-25_cond_decay_EYE-try,2021.2.3,120.12949089970363,
left,0.75,1.0,0,0,0,0,0,3,0,3,0,0,2,2,2,,,,,,,,,,,,,,,10s,504.62236855505034,505.62342795496807,505.61517167603597,None,506.61452956101857,511.58958797808737,506.61452956101857,511.58958797808737,511.58958797808737,None,511.58958797808737,None,space,0.6170580720063299,511.58958797808737,None,4.9764,512.3381608820055,None,,,,,,,DEC020,001,2022_Nov_11_1440,2-25_cond_decay_EYE-try,2021.2.3,120.12949089970363,
right,1.0,0.75,0,0,0,0,0,3,0,3,0,0,3,3,9,,,,,,,,,,,,,,,10s,513.3971810340881,514.3979345201515,514.3896156679839,None,515.3896327770781,521.7903932710178,515.3896327770781,521.7903932710178,521.7903932710178,None,521.7903932710178,None,space,0.3193250170443207,521.7903932710178,None,6.3953,522.2388846811373,None,,,,,,,DEC020,001,2022_Nov_11_1440,2-25_cond_decay_EYE-try,2021.2.3,120.12949089970363,
right,1.0,0.75,0,0,0,0,0,3,0,3,0,0,4,4,3,,,,,,,,,,,,,,,10s,523.2901008410845,524.2896159240045,524.281371796038,None,525.2814570111223,530.2812127161305,525.2814570111223,530.2812127161305,530.2812127161305,None,530.2812127161305,None,space,0.41920810495503247,530.2812127161305,None,4.994,530.830089592142,None,,,,,,,DEC020,001,2022_Nov_11_1440,2-25_cond_decay_EYE-try,2021.2.3,120.12949089970363,
right,0.75,1.0,1,0,0,0,0,3,0,3,0,0,5,5,6,,,,,,,,,,,,,,,10s,531.888467208948,532.8895629369654,532.8812343471218,None,533.8814263429958,543.0903927080799,533.8814263429958,543.0903927080799,543.0817614800762,None,543.0817614800762,None,space,0.48615502612665296,543.0817614800762,None,9.2056,543.6973539621104,None,,,,,,,DEC020,001,2022_Nov_11_1440,2-25_cond_decay_EYE-try,2021.2.3,120.12949089970363,
left,0.75,1.0,0,0,0,0,0,3,0,3,0,0,6,6,8,,,,,,,,,,,,,,,10s,544.755275915144,545.7568820849992,545.7485068331007,None,546.7483147280291,556.0485275299288,546.7483147280291,556.0485275299288,556.0485275299288,None,556.0485275299288,None,space,0.3507381109520793,556.0485275299288,None,9.3017,556.5304649809841,None,,,,,,,DEC020,001,2022_Nov_11_1440,2-25_cond_decay_EYE-try,2021.2.3,120.12949089970363,
right,1.0,0.75,0,0,0,0,0,3,0,3,0,0,7,7,5,,,,,,,,,,,,,,,10s,557.5806932449341,558.5822917439509,558.5741097580176,None,559.573183859,562.0150080029853,559.573183859,562.0150080029853,562.0150080029853,None,562.0150080029853,None,space,0.4616463058628142,562.0150080029853,None,2.437,562.6056160849985,None,,,,,,,DEC020,001,2022_Nov_11_1440,2-25_cond_decay_EYE-try,2021.2.3,120.12949089970363,
left,0.75,1.0,0,0,0,0,0,3,0,3,0,0,8,8,4,,,,,,,,,,,,,,,10s,563.6637007901445,564.6652565749828,564.6574081559666,None,565.6574948469643,568.9741162990686,565.6574948469643,568.9741162990686,568.9741162990686,None,568.9741162990686,None,space,0.5526531571522355,568.9741162990686,None,3.3129,569.6553535549901,None,,,,,,,DEC020,001,2022_Nov_11_1440,2-25_cond_decay_EYE-try,2021.2.3,120.12949089970363,
left,0.75,1.0,0,0,0,0,0,3,0,3,0,0,9,9,7,,,,,,,,,,,,,,,10s,570.7138488190249,571.7159848590381,571.7068197701592,None,572.7067436920479,579.3489208249375,572.7067436920479,579.3489208249375,579.3403820940293,None,579.3403820940293,None,space,0.3523050390649587,579.3403820940293,None,6.6398,579.8225958079565,None,,,,,,,DEC020,001,2022_Nov_11_1440,2-25_cond_decay_EYE-try,2021.2.3,120.12949089970363,
left,0.75,1.0,0,0,0,0,0,3,0,3,0,1,0,10,4,,,,,,,,,,,,,,,10s,580.8721693011466,581.8736964140553,581.8652113620192,None,582.8658568290994,591.5655529880896,582.8658568290994,591.5655529880896,591.5655529880896,None,591.5655529880896,None,space,0.3691971900407225,591.5655529880896,None,8.6954,592.0644056131132,None,,,,,,,DEC020,001,2022_Nov_11_1440,2-25_cond_decay_EYE-try,2021.2.3,120.12949089970363,
left,0.75,1.0,0,0,0,0,0,3,0,3,0,1,1,11,7,,,,,,,,,,,,,,,10s,593.1160227251239,594.1155120769981,594.107269605156,None,595.1076254490763,602.5075755140278,595.1076254490763,602.5075755140278,602.5075755140278,None,602.5075755140278,None,space,0.37698185187764466,602.5075755140278,None,7.3992,603.0140762699302,None,,,,,,,DEC020,001,2022_Nov_11_1440,2-25_cond_decay_EYE-try,2021.2.3,120.12949089970363,
right,1.0,0.75,0,0,0,0,0,3,0,3,0,1,2,12,5,,,,,,,,,,,,,,,10s,604.0663452320732,605.0660700770095,605.0578269441612,None,606.0574124341365,614.3161700470373,606.0574124341365,614.3161700470373,614.3076687471475,None,614.3076687471475,None,space,0.4194473980460316,614.3076687471475,None,8.2538,614.8566391440108,None,,,,,,,DEC020,001,2022_Nov_11_1440,2-25_cond_decay_EYE-try,2021.2.3,120.12949089970363,
right,1.0,0.75,0,0,0,0,0,3,0,3,0,1,3,13,1,,,,,,,,,,,,,,,10s,615.9060209100135,616.9074437490199,616.899324954953,None,617.8994114871603,623.5662549799308,617.8994114871603,623.5662549799308,623.5662549799308,None,623.5662549799308,None,space,0.466858278028667,623.5662549799308,None,5.6619,624.1651821660344,None,,,,,,,DEC020,001,2022_Nov_11_1440,2-25_cond_decay_EYE-try,2021.2.3,120.12949089970363,
right,1.0,0.75,0,0,0,0,0,3,0,3,0,1,4,14,3,,,,,,,,,,,,,,,10s,625.2234108180273,626.2244492850732,626.2163182280492,None,627.216169829946,633.4832446270157,627.216169829946,633.4832446270157,633.4745880321134,None,633.4745880321134,None,space,0.38565496704541147,633.4745880321134,None,6.2626,633.9894392469432,None,,,,,,,DEC020,001,2022_Nov_11_1440,2-25_cond_decay_EYE-try,2021.2.3,120.12949089970363,
left,1.0,0.75,1,0,0,0,0,3,0,3,0,1,5,15,0,,,,,,,,,,,,,,,10s,635.0487663659733,636.0491138489451,636.0412111370824,None,637.0409708160441,645.9749842761084,637.0409708160441,645.9749842761084,645.9749842761084,None,645.9749842761084,None,None,,645.9749842761084,None,8.9315,647.0980834329966,None,,,,,,,DEC020,001,2022_Nov_11_1440,2-25_cond_decay_EYE-try,2021.2.3,120.12949089970363,
left,0.75,1.0,0,0,0,0,0,3,0,3,0,1,6,16,2,,,,,,,,,,,,,,,10s,648.1570644830354,649.157757780049,649.1417574770749,None,650.1411856829654,657.6582708279602,650.1411856829654,657.6582708279602,657.6582708279602,None,657.6582708279602,None,space,0.958466914948076,657.6582708279602,None,7.511,658.748494201107,None,,,,,,,DEC020,001,2022_Nov_11_1440,2-25_cond_decay_EYE-try,2021.2.3,120.12949089970363,
left,0.75,1.0,0,0,0,0,0,3,0,3,0,1,7,17,8,,,,,,,,,,,,,,,10s,659.7993105261121,660.8000144099351,660.7911434380803,None,661.7909799669869,663.299414339941,661.7909799669869,663.299414339941,663.299414339941,None,663.299414339941,None,None,,663.299414339941,None,1.5048,664.423079200089,None,,,,,,,DEC020,001,2022_Nov_11_1440,2-25_cond_decay_EYE-try,2021.2.3,120.12949089970363,
right,0.75,1.0,1,0,0,0,0,3,0,3,0,1,8,18,6,,,,,,,,,,,,,,,10s,665.4825369811151,666.4829031061381,666.4748045019805,None,667.4746384229511,670.2249084471259,667.4746384229511,670.2249084471259,670.2249084471259,None,670.2249084471259,None,space,0.5029998000245541,670.2249084471259,None,2.7489,670.8567502440419,None,,,,,,,DEC020,001,2022_Nov_11_1440,2-25_cond_decay_EYE-try,2021.2.3,120.12949089970363,
right,1.0,0.75,0,0,0,0,0,3,0,3,0,1,9,19,9,,,,,,,,,,,,,,,10s,671.9082119720988,672.9079242439475,672.8996416490991,None,673.8994423120748,679.4249610861298,673.8994423120748,679.4249610861298,679.4249610861298,None,679.4249610861298,None,space,0.32530869101174176,679.4249610861298,None,5.5269,679.882360736141,None,,,,,,,DEC020,001,2022_Nov_11_1440,2-25_cond_decay_EYE-try,2021.2.3,120.12949089970363,
,,,,0,0,0,0,3,0,3,0,,,,,,,,,,,,,,,,,,,,,,,,,,,,,,,,,,,,,,,,,,,,,DEC020,001,2022_Nov_11_1440,2-25_cond_decay_EYE-try,2021.2.3,120.12949089970363,
,,,,0,0,0,0,,,,,,,,,,,,,,,,,,,,,,,,,,,,,,,,,,,,,,,,,,,680.7739690740127,None,680.7739690740127,None,680.7739690740127,None,DEC020,001,2022_Nov_11_1440,2-25_cond_decay_EYE-try,2021.2.3,120.12949089970363,
left,0.75,1.0,0,1,0,1,0,0,0,0,0,0,0,0,2,,,,,,,,,685.7735195029527,None,685.7735195029527,None,685.7735195029527,None,10s,690.6484930219594,691.6505742389709,691.6421235830057,None,692.6422856249847,695.7415410680696,692.6422856249847,695.7415410680696,695.7330089760944,None,695.7330089760944,None,space,0.45049725100398064,695.7330089760944,None,3.0928,696.3157913810574,None,,,,,,,DEC020,001,2022_Nov_11_1440,2-25_cond_decay_EYE-try,2021.2.3,120.12949089970363,
right,0.75,1.0,1,1,0,1,0,0,0,0,0,0,1,1,3,,,,,,,,,,,,,,,10s,697.3753161099739,698.3755236261059,698.3664892450906,None,699.3667636890896,701.3250893999357,699.3667636890896,701.3250893999357,701.3250893999357,None,701.3250893999357,None,None,,701.3250893999357,None,1.9537,702.4486552821472,None,,,,,,,DEC020,001,2022_Nov_11_1440,2-25_cond_decay_EYE-try,2021.2.3,120.12949089970363,
left,0.75,1.0,0,1,0,1,0,0,0,0,0,0,2,2,6,,,,,,,,,,,,,,,10s,703.5077976710163,704.5085051590577,704.5005583979655,None,705.5005531371571,711.2675278601237,705.5005531371571,711.2675278601237,711.2675278601237,None,711.2675278601237,None,space,0.41026764712296426,711.2675278601237,None,5.767,711.8070948829409,None,,,,,,,DEC020,001,2022_Nov_11_1440,2-25_cond_decay_EYE-try,2021.2.3,120.12949089970363,
left,0.75,1.0,0,1,0,1,0,0,0,0,0,0,3,3,1,,,,,,,,,,,,,,,10s,712.8653352661058,713.8664444149472,713.8504667179659,None,714.8583040861413,716.3001261639874,714.8583040861413,716.3001261639874,716.2914702871349,None,716.2914702871349,None,space,0.4931921260431409,716.2914702871349,None,1.442,716.9155546319671,None,,,,,,,DEC020,001,2022_Nov_11_1440,2-25_cond_decay_EYE-try,2021.2.3,120.12949089970363,
right,1.0,0.75,0,1,0,1,0,0,0,0,0,0,4,4,5,,,,,,,,,,,,,,,10s,717.9737543661613,718.9752560849302,718.9672267970163,None,719.9674206611235,720.4421520440374,719.9674206611235,720.4421520440374,720.4421520440374,None,720.4421520440374,None,None,,720.4421520440374,None,0.4725,721.5659759039991,None,,,,,,,DEC020,001,2022_Nov_11_1440,2-25_cond_decay_EYE-try,2021.2.3,120.12949089970363,
right,1.0,0.75,0,1,0,1,0,0,0,0,0,0,5,5,4,,,,,,,,,,,,,,,10s,722.615702635143,723.6172068801243,723.6093186400831,None,724.6092308801599,731.3589894489851,724.6092308801599,731.3589894489851,731.3503119819798,None,731.3503119819798,None,space,0.3857844939921051,731.3503119819798,None,6.7439,731.8658965849318,None,,,,,,,DEC020,001,2022_Nov_11_1440,2-25_cond_decay_EYE-try,2021.2.3,120.12949089970363,
left,0.75,1.0,0,1,0,1,0,0,0,0,0,0,6,6,9,,,,,,,,,,,,,,,10s,732.9245283580385,733.9251094670035,733.9168826581445,None,734.916936801048,742.4427643660456,734.916936801048,742.4427643660456,742.4427643660456,None,742.4427643660456,None,space,0.3420617289375514,742.4427643660456,None,7.5251,742.9162661980372,None,,,,,,,DEC020,001,2022_Nov_11_1440,2-25_cond_decay_EYE-try,2021.2.3,120.12949089970363,
left,0.75,1.0,0,1,0,1,0,0,0,0,0,0,7,7,7,,,,,,,,,,,,,,,10s,743.9673102309462,744.9670511700679,744.958932376001,None,745.958651777124,752.092571723042,745.958651777124,752.092571723042,752.092571723042,None,752.092571723042,None,space,0.335919575067237,752.092571723042,None,6.1283,752.5574296310078,None,,,,,,,DEC020,001,2022_Nov_11_1440,2-25_cond_decay_EYE-try,2021.2.3,120.12949089970363,
right,1.0,0.75,0,1,0,1,0,0,0,0,0,0,8,8,0,,,,,,,,,,,,,,,10s,753.6166182791349,754.6172378109768,754.6089172239881,None,755.6091021951288,757.417685033055,755.6091021951288,757.417685033055,757.417685033055,None,757.417685033055,None,space,0.49435514584183693,757.417685033055,None,1.8061,758.0409205229953,None,,,,,,,DEC020,001,2022_Nov_11_1440,2-25_cond_decay_EYE-try,2021.2.3,120.12949089970363,
right,1.0,0.75,0,1,0,1,0,0,0,0,0,0,9,9,8,,,,,,,,,,,,,,,10s,759.0992985130288,760.1004910629708,760.0924229840748,None,761.0927566520404,764.543043668149,761.0927566520404,764.543043668149,764.5344598640222,None,764.5344598640222,None,space,0.36942046391777694,764.5344598640222,None,3.447,765.0328686579596,None,,,,,,,DEC020,001,2022_Nov_11_1440,2-25_cond_decay_EYE-try,2021.2.3,120.12949089970363,
left,0.75,1.0,0,1,0,1,0,0,0,0,0,1,0,10,6,,,,,,,,,,,,,,,10s,766.0910188781563,767.0927666560747,767.0761951811146,None,768.0755300300661,770.5842968779616,768.0755300300661,770.5842968779616,770.5926384460181,None,770.5926384460181,None,space,0.3589779329486191,770.5926384460181,None,2.5097,771.0834885099903,None,,,,,,,DEC020,001,2022_Nov_11_1440,2-25_cond_decay_EYE-try,2021.2.3,120.12949089970363,
left,1.0,0.75,1,1,0,1,0,0,0,0,0,1,1,11,2,,,,,,,,,,,,,,,10s,772.1420800299384,773.1428898901213,773.1345788941253,None,774.1347552509978,779.6511692821514,774.1347552509978,779.6511692821514,779.6425475799479,None,779.6425475799479,None,space,0.5529552919324487,779.6425475799479,None,5.5119,780.3245765939355,None,,,,,,,DEC020,001,2022_Nov_11_1440,2-25_cond_decay_EYE-try,2021.2.3,120.12949089970363,
right,1.0,0.75,0,1,0,1,0,0,0,0,0,1,2,12,4,,,,,,,,,,,,,,,10s,781.383418841986,782.3848001779988,782.3757943511009,None,783.3759341470432,792.325850160094,783.3759341470432,792.325850160094,792.3180514320266,None,792.3180514320266,None,space,0.3436932449694723,792.3180514320266,None,8.9432,792.7918485580012,None,,,,,,,DEC020,001,2022_Nov_11_1440,2-25_cond_decay_EYE-try,2021.2.3,120.12949089970363,
right,0.75,1.0,1,1,0,1,0,0,0,0,0,1,3,13,3,,,,,,,,,,,,,,,10s,793.8501261610072,794.8514701779932,794.83499909495,None,795.834066306008,803.1091296761297,795.834066306008,803.1091296761297,803.1091296761297,None,803.1091296761297,None,space,0.859515676042065,803.1091296761297,None,7.2735,804.1003531571478,None,,,,,,,DEC020,001,2022_Nov_11_1440,2-25_cond_decay_EYE-try,2021.2.3,120.12949089970363,
right,1.0,0.75,0,1,0,1,0,0,0,0,0,1,4,14,8,,,,,,,,,,,,,,,10s,805.1499975861516,806.1512637080159,806.1431201121304,None,807.1431440711021,810.3178977479693,807.1431440711021,810.3178977479693,810.3093344189692,None,810.3093344189692,None,space,0.4349804420489818,810.3093344189692,None,3.1679,810.8752224440686,None,,,,,,,DEC020,001,2022_Nov_11_1440,2-25_cond_decay_EYE-try,2021.2.3,120.12949089970363,
right,1.0,0.75,0,1,0,1,0,0,0,0,0,1,5,15,0,,,,,,,,,,,,,,,10s,811.9254028510768,812.9262817541603,812.9178729341365,None,813.9180527839344,823.7010065631475,813.9180527839344,823.7010065631475,823.7010065631475,None,823.7010065631475,None,space,0.34457995695993304,823.7010065631475,None,9.7816,824.1754354920704,None,,,,,,,DEC020,001,2022_Nov_11_1440,2-25_cond_decay_EYE-try,2021.2.3,120.12949089970363,
left,0.75,1.0,0,1,0,1,0,0,0,0,0,1,6,16,9,,,,,,,,,,,,,,,10s,825.2338707300369,826.2348800681066,826.2264712050091,None,827.22702905396,836.9597041669767,827.22702905396,836.9597041669767,836.9513219499495,None,836.9513219499495,None,space,0.9273980550933629,836.9513219499495,None,9.727,838.0089204220567,None,,,,,,,DEC020,001,2022_Nov_11_1440,2-25_cond_decay_EYE-try,2021.2.3,120.12949089970363,
left,0.75,1.0,0,1,0,1,0,0,0,0,0,1,7,17,7,,,,,,,,,,,,,,,10s,839.0668181991205,840.0680129730608,840.0595329380594,None,841.0598443250638,843.6098710140213,841.0598443250638,843.6098710140213,843.6022914100904,None,843.6022914100904,None,space,0.402111193863675,843.6022914100904,None,2.5461,844.1340656660032,None,,,,,,,DEC020,001,2022_Nov_11_1440,2-25_cond_decay_EYE-try,2021.2.3,120.12949089970363,
left,0.75,1.0,0,1,0,1,0,0,0,0,0,1,8,18,1,,,,,,,,,,,,,,,10s,845.1840955831576,846.1847658159677,846.1765579381026,None,847.1763830780983,854.6851338150445,847.1763830780983,854.6851338150445,854.6767347820569,None,854.6767347820569,None,space,0.3862335258163512,854.6767347820569,None,7.5024,855.1919543489348,None,,,,,,,DEC020,001,2022_Nov_11_1440,2-25_cond_decay_EYE-try,2021.2.3,120.12949089970363,
right,1.0,0.75,0,1,0,1,0,0,0,0,0,1,9,19,5,,,,,,,,,,,,,,,10s,856.250205906108,857.2518077089917,857.2438112141099,None,858.2435239171609,868.1848774040118,858.2435239171609,868.1848774040118,868.1848774040118,None,868.1848774040118,None,space,0.2858944230247289,868.1848774040118,None,9.9364,868.6006544481497,None,,,,,,,DEC020,001,2022_Nov_11_1440,2-25_cond_decay_EYE-try,2021.2.3,120.12949089970363,
,,,,1,0,1,0,0,0,0,0,,,,,,,,,,,,,,,,,,,,,,,,,,,,,,,,,,,,,,,,,,,,,DEC020,001,2022_Nov_11_1440,2-25_cond_decay_EYE-try,2021.2.3,120.12949089970363,
left,0.75,1.0,0,1,0,1,0,1,0,1,0,0,0,0,0,,,,,,,,,869.4926093439572,None,869.4926093439572,None,869.4926093439572,None,3s,873.95230386802,874.9515259759501,874.9433910059743,None,875.9434376731515,878.259981086012,875.9434376731515,878.259981086012,878.259981086012,None,878.259981086012,None,space,0.325984455877915,878.259981086012,None,2.3164,878.7169629910495,None,,,,,,,DEC020,001,2022_Nov_11_1440,2-25_cond_decay_EYE-try,2021.2.3,120.12949089970363,
right,1.0,0.75,0,1,0,1,0,1,0,1,0,0,1,1,8,,,,,,,,,,,,,,,3s,879.7753176209517,880.7773073881399,880.7692087560426,None,881.7683336650953,882.2189782119822,881.7683336650953,882.2189782119822,882.2189782119822,None,882.2189782119822,None,space,0.4358659249264747,882.2189782119822,None,0.4494,882.7839891340118,None,,,,,,,DEC020,001,2022_Nov_11_1440,2-25_cond_decay_EYE-try,2021.2.3,120.12949089970363,
left,0.75,1.0,0,1,0,1,0,1,0,1,0,0,2,2,4,,,,,,,,,,,,,,,3s,883.8344762020279,884.8352695319336,884.8267082720995,None,885.8270974520128,888.2609420339577,885.8270974520128,888.2609420339577,888.2524509781506,None,888.2524509781506,None,space,0.33563684788532555,888.2524509781506,None,2.4258,888.7172380441334,None,,,,,,,DEC020,001,2022_Nov_11_1440,2-25_cond_decay_EYE-try,2021.2.3,120.12949089970363,
right,1.0,0.75,0,1,0,1,0,1,0,1,0,0,3,3,9,,,,,,,,,,,,,,,3s,889.7764923640061,890.7771135431249,890.7689016510267,None,891.7690569921397,894.1269458229654,891.7690569921397,894.1269458229654,894.1185585490894,None,894.1185585490894,None,space,0.3360370930749923,894.1185585490894,None,2.3515,894.5840449919924,None,,,,,,,DEC020,001,2022_Nov_11_1440,2-25_cond_decay_EYE-try,2021.2.3,120.12949089970363,
left,0.75,1.0,0,1,0,1,0,1,0,1,0,0,4,4,7,,,,,,,,,,,,,,,3s,895.642741844058,896.6438317799475,896.6354262209497,None,897.6351971200202,897.968634655932,897.6351971200202,897.968634655932,897.961044873111,None,897.961044873111,None,space,0.4685988840647042,897.961044873111,None,0.3288,898.5594651179854,None,,,,,,,DEC020,001,2022_Nov_11_1440,2-25_cond_decay_EYE-try,2021.2.3,120.12949089970363,
left,1.0,0.75,1,1,0,1,0,1,0,1,0,0,5,5,3,,,,,,,,,,,,,,,3s,899.6180626600981,900.6190409581177,900.6107028371189,None,901.611038851086,902.4774647050072,901.611038851086,902.4774647050072,902.4689959289972,None,902.4689959289972,None,space,0.4760014920029789,902.4689959289972,None,0.8613,903.0764428740367,None,,,,,,,DEC020,001,2022_Nov_11_1440,2-25_cond_decay_EYE-try,2021.2.3,120.12949089970363,
right,1.0,0.75,0,1,0,1,0,1,0,1,0,0,6,6,2,,,,,,,,,,,,,,,3s,904.1348153790459,905.1360185041558,905.1279819470365,None,906.12706196215,908.1937058109324,906.12706196215,908.1937058109324,908.1937058109324,None,908.1937058109324,None,space,0.4278210299089551,908.1937058109324,None,2.0639,908.7509811429773,None,,,,,,,DEC020,001,2022_Nov_11_1440,2-25_cond_decay_EYE-try,2021.2.3,120.12949089970363,
left,0.75,1.0,0,1,0,1,0,1,0,1,0,0,7,7,6,,,,,,,,,,,,,,,3s,909.809040192049,910.8111447889823,910.8019974320196,None,911.8019814540166,914.519566613948,911.8019814540166,914.519566613948,914.5107790310867,None,914.5107790310867,None,space,0.35315290791913867,914.5107790310867,None,2.7123,914.9931452281307,None,,,,,,,DEC020,001,2022_Nov_11_1440,2-25_cond_decay_EYE-try,2021.2.3,120.12949089970363,
right,1.0,0.75,0,1,0,1,0,1,0,1,0,0,8,8,1,,,,,,,,,,,,,,,3s,916.059403297957,917.0610548190307,917.0439993429463,None,918.0441253350582,919.2938983249478,918.0441253350582,919.2938983249478,919.2862533989828,None,919.2862533989828,None,space,0.32731109019368887,919.2862533989828,None,1.244,919.742628374137,None,,,,,,,DEC020,001,2022_Nov_11_1440,2-25_cond_decay_EYE-try,2021.2.3,120.12949089970363,
right,0.75,1.0,1,1,0,1,0,1,0,1,0,0,9,9,5,,,,,,,,,,,,,,,3s,920.8007889650762,921.802211089991,921.7857427611016,None,922.7856079309713,924.2697300489526,922.7856079309713,924.2697300489526,924.2697300489526,None,924.2697300489526,None,space,0.42739146016538143,924.2697300489526,None,1.4783,924.8261149800383,None,,,,,,,DEC020,001,2022_Nov_11_1440,2-25_cond_decay_EYE-try,2021.2.3,120.12949089970363,
right,1.0,0.75,0,1,0,1,0,1,0,1,0,1,0,10,1,,,,,,,,,,,,,,,3s,925.876269859029,926.877841694979,926.8695766150486,None,927.8695284039713,930.8356940359809,927.8695284039713,930.8356940359809,930.8280889799353,None,930.8280889799353,None,space,0.3255297699943185,930.8280889799353,None,2.9597,931.2850558429491,None,,,,,,,DEC020,001,2022_Nov_11_1440,2-25_cond_decay_EYE-try,2021.2.3,120.12949089970363,
left,1.0,0.75,1,1,0,1,0,1,0,1,0,1,1,11,3,,,,,,,,,,,,,,,3s,932.3430511539336,933.3446165481582,933.3357439800166,None,934.335759802023,935.0364367931616,934.335759802023,935.0364367931616,935.0364367931616,None,935.0364367931616,None,space,0.42730657709762454,935.0364367931616,None,0.6978,935.5927693489939,None,,,,,,,DEC020,001,2022_Nov_11_1440,2-25_cond_decay_EYE-try,2021.2.3,120.12949089970363,
left,0.75,1.0,0,1,0,1,0,1,0,1,0,1,2,12,4,,,,,,,,,,,,,,,3s,936.6512027520221,937.6527441020589,937.6442991599906,None,938.6443481720053,941.5365352330264,938.6443481720053,941.5365352330264,941.5365352330264,None,941.5365352330264,None,space,0.3515670441556722,941.5365352330264,None,2.8922,942.018120268127,None,,,,,,,DEC020,001,2022_Nov_11_1440,2-25_cond_decay_EYE-try,2021.2.3,120.12949089970363,
right,1.0,0.75,0,1,0,1,0,1,0,1,0,1,3,13,2,,,,,,,,,,,,,,,3s,943.0764329519589,944.0774436250795,944.0614463409875,None,945.0616776831448,947.5610336519312,945.0616776831448,947.5610336519312,947.5610336519312,None,947.5610336519312,None,space,0.31084593711420894,947.5610336519312,None,2.4956,948.0018318421207,None,,,,,,,DEC020,001,2022_Nov_11_1440,2-25_cond_decay_EYE-try,2021.2.3,120.12949089970363,
left,0.75,1.0,0,1,0,1,0,1,0,1,0,1,4,14,0,,,,,,,,,,,,,,,3s,949.0526079421397,950.0525360940956,950.0443973231595,None,951.0445711540524,951.3024118321482,951.0445711540524,951.3024118321482,951.3024118321482,None,951.3024118321482,None,space,0.4695100961253047,951.3024118321482,None,0.2589,951.9015235709958,None,,,,,,,DEC020,001,2022_Nov_11_1440,2-25_cond_decay_EYE-try,2021.2.3,120.12949089970363,
right,1.0,0.75,0,1,0,1,0,1,0,1,0,1,5,15,9,,,,,,,,,,,,,,,3s,952.9599862210453,953.961267560022,953.9528489629738,None,954.9524174029939,957.0108052319847,954.9524174029939,957.0108052319847,957.0108052319847,None,957.0108052319847,None,space,0.3693970071617514,957.0108052319847,None,2.0563,957.5098237539642,None,,,,,,,DEC020,001,2022_Nov_11_1440,2-25_cond_decay_EYE-try,2021.2.3,120.12949089970363,
left,0.75,1.0,0,1,0,1,0,1,0,1,0,1,6,16,7,,,,,,,,,,,,,,,3s,958.5679833879694,959.5693083319347,959.5610273249913,None,960.5611248100176,963.1698674119543,960.5611248100176,963.1698674119543,963.1698674119543,None,963.1698674119543,None,space,0.3086373810656369,963.1698674119543,None,2.6099,963.6098058619536,None,,,,,,,DEC020,001,2022_Nov_11_1440,2-25_cond_decay_EYE-try,2021.2.3,120.12949089970363,
left,0.75,1.0,0,1,0,1,0,1,0,1,0,1,7,17,6,,,,,,,,,,,,,,,3s,964.661536002066,965.6613035011105,965.6531198171433,None,966.6525494030211,968.3275470461231,966.6525494030211,968.3275470461231,968.3275470461231,None,968.3275470461231,None,space,0.38391554495319724,968.3275470461231,None,1.6683,968.8437063801102,None,,,,,,,DEC020,001,2022_Nov_11_1440,2-25_cond_decay_EYE-try,2021.2.3,120.12949089970363,
right,0.75,1.0,1,1,0,1,0,1,0,1,0,1,8,18,5,,,,,,,,,,,,,,,3s,969.9019473439548,970.9033205071464,970.8862846270204,None,971.8859573660884,973.8276353629772,971.8859573660884,973.8276353629772,973.8276353629772,None,973.8276353629772,None,space,0.4032554249279201,973.8276353629772,None,1.9347,974.3600963091012,None,,,,,,,DEC020,001,2022_Nov_11_1440,2-25_cond_decay_EYE-try,2021.2.3,120.12949089970363,
right,1.0,0.75,0,1,0,1,0,1,0,1,0,1,9,19,8,,,,,,,,,,,,,,,3s,975.4181414970662,976.4198311921209,976.4114824661519,None,977.4027598330285,979.6026856231038,977.4027598330285,979.6026856231038,979.6026856231038,None,979.6026856231038,None,space,0.3695506979711354,979.6026856231038,None,2.1995,980.1022235790733,None,,,,,,,DEC020,001,2022_Nov_11_1440,2-25_cond_decay_EYE-try,2021.2.3,120.12949089970363,
,,,,1,0,1,0,1,0,1,0,,,,,,,,,,,,,,,,,,,,,,,,,,,,,,,,,,,,,,,,,,,,,DEC020,001,2022_Nov_11_1440,2-25_cond_decay_EYE-try,2021.2.3,120.12949089970363,
left,0.75,1.0,0,1,0,1,0,2,0,2,0,0,0,0,1,,,,,,,,,980.9936976551544,None,980.9936976551544,None,980.9936976551544,None,1s,984.4441492999904,985.4451312290039,985.4281319270376,None,986.427920297021,986.6617965800688,986.427920297021,986.6617965800688,986.6617965800688,None,986.6617965800688,None,space,0.32785307383164763,986.6617965800688,None,0.23,987.1184183389414,None,,,,,,,DEC020,001,2022_Nov_11_1440,2-25_cond_decay_EYE-try,2021.2.3,120.12949089970363,
right,1.0,0.75,0,1,0,1,0,2,0,2,0,0,1,1,2,,,,,,,,,,,,,,,1s,988.1767521901056,989.1781664770097,989.1618049091194,None,990.1621950340923,990.3198455730453,990.1621950340923,990.3198455730453,990.3198455730453,None,990.3198455730453,None,space,0.35066788201220334,990.3198455730453,None,0.1548,990.8019477811176,None,,,,,,,DEC020,001,2022_Nov_11_1440,2-25_cond_decay_EYE-try,2021.2.3,120.12949089970363,
right,0.75,1.0,1,1,0,1,0,2,0,2,0,0,2,2,3,,,,,,,,,,,,,,,1s,991.8535516201518,992.853709085146,992.8454453321174,None,993.8449720030185,994.2867639129981,993.8449720030185,994.2867639129981,994.2867639129981,None,994.2867639129981,None,space,0.3110057800076902,994.2867639129981,None,0.4399,994.7273460989818,None,,,,,,,DEC020,001,2022_Nov_11_1440,2-25_cond_decay_EYE-try,2021.2.3,120.12949089970363,
left,0.75,1.0,0,1,0,1,0,2,0,2,0,0,3,3,5,,,,,,,,,,,,,,,1s,995.7855096950661,996.7870455861557,996.7787773350719,None,997.778072985122,998.5368034890853,997.778072985122,998.5368034890853,998.5368034890853,None,998.5368034890853,None,space,0.29400261701084673,998.5368034890853,None,0.7526,998.9604556770064,None,,,,,,,DEC020,001,2022_Nov_11_1440,2-25_cond_decay_EYE-try,2021.2.3,120.12949089970363,
left,1.0,0.75,1,1,0,1,0,2,0,2,0,0,4,4,7,,,,,,,,,,,,,,,1s,1000.0122194970027,1001.0121362961363,1001.0036069520283,None,1002.0036873819772,1002.8871219479479,1002.0036873819772,1002.8871219479479,1002.8871219479479,None,1002.8871219479479,None,space,0.26049557607620955,1002.8871219479479,None,0.8812,1003.2766897981055,None,,,,,,,DEC020,001,2022_Nov_11_1440,2-25_cond_decay_EYE-try,2021.2.3,120.12949089970363,
left,0.75,1.0,0,1,0,1,0,2,0,2,0,0,5,5,0,,,,,,,,,,,,,,,1s,1004.3272089611273,1005.3288661721162,1005.3196633961052,None,1006.3196279790718,1006.8117415211163,1006.3196279790718,1006.8117415211163,1006.8030962401535,None,1006.8030962401535,None,space,0.317288707010448,1006.8030962401535,None,0.4903,1007.25191159104,None,,,,,,,DEC020,001,2022_Nov_11_1440,2-25_cond_decay_EYE-try,2021.2.3,120.12949089970363,
right,1.0,0.75,0,1,0,1,0,2,0,2,0,0,6,6,6,,,,,,,,,,,,,,,1s,1008.3109696160536,1009.3120849230327,1009.2954276059754,None,1010.2947506101336,1010.8202394139953,1010.2947506101336,1010.8202394139953,1010.8202394139953,None,1010.8202394139953,None,space,0.2916178060695529,1010.8202394139953,None,0.5235,1011.2434188679326,None,,,,,,,DEC020,001,2022_Nov_11_1440,2-25_cond_decay_EYE-try,2021.2.3,120.12949089970363,
left,0.75,1.0,0,1,0,1,0,2,0,2,0,0,7,7,8,,,,,,,,,,,,,,,1s,1012.302789920941,1013.3040313499514,1013.2864777611103,None,1014.2863143789582,1014.9372798290569,1014.2863143789582,1014.9372798290569,1014.9372798290569,None,1014.9372798290569,None,space,0.2854705529753119,1014.9372798290569,None,0.6447,1015.3518953900784,None,,,,,,,DEC020,001,2022_Nov_11_1440,2-25_cond_decay_EYE-try,2021.2.3,120.12949089970363,
left,0.75,1.0,0,1,0,1,0,2,0,2,0,0,8,8,4,,,,,,,,,,,,,,,1s,1016.4040175850969,1017.403741300106,1017.3955272820313,None,1018.3956848471425,1019.2538721710443,1018.3956848471425,1019.2538721710443,1019.2538721710443,None,1019.2538721710443,None,space,0.28602406894788146,1019.2538721710443,None,0.8557,1019.6686402480118,None,,,,,,,DEC020,001,2022_Nov_11_1440,2-25_cond_decay_EYE-try,2021.2.3,120.12949089970363,
right,1.0,0.75,0,1,0,1,0,2,0,2,0,0,9,9,9,,,,,,,,,,,,,,,1s,1020.7275424960535,1021.7287356220186,1021.7204289950896,None,1022.7197651960887,1023.4785243039951,1022.7197651960887,1023.4785243039951,1023.4699572329409,None,1023.4699572329409,None,space,0.24211115902289748,1023.4699572329409,None,0.7528,1023.8439281401224,None,,,,,,,DEC020,001,2022_Nov_11_1440,2-25_cond_decay_EYE-try,2021.2.3,120.12949089970363,
left,0.75,1.0,0,1,0,1,0,2,0,2,0,1,0,10,8,,,,,,,,,,,,,,,1s,1024.902872581035,1025.9035751461051,1025.895318866009,None,1026.8954048571177,1027.1204018951394,1026.8954048571177,1027.1204018951394,1027.1204018951394,None,1027.1204018951394,None,None,,1027.1204018951394,None,0.2222,1028.2437520720996,None,,,,,,,DEC020,001,2022_Nov_11_1440,2-25_cond_decay_EYE-try,2021.2.3,120.12949089970363,
right,1.0,0.75,0,1,0,1,0,2,0,2,0,1,1,11,9,,,,,,,,,,,,,,,1s,1029.302237191936,1030.3037419070024,1030.295548178954,None,1031.2954374710098,1031.6039323641453,1031.2954374710098,1031.6039323641453,1031.6039323641453,None,1031.6039323641453,None,space,0.3440182760823518,1031.6039323641453,None,0.3053,1032.077569189947,None,,,,,,,DEC020,001,2022_Nov_11_1440,2-25_cond_decay_EYE-try,2021.2.3,120.12949089970363,
left,0.75,1.0,0,1,0,1,0,2,0,2,0,1,2,12,5,,,,,,,,,,,,,,,1s,1033.127467156155,1034.1284638729412,1034.1200005600695,None,1035.12055299012,1035.9206212409772,1035.12055299012,1035.9206212409772,1035.9120666689705,None,1035.9120666689705,None,space,0.2857978311367333,1035.9120666689705,None,0.795,1036.3279527679551,None,,,,,,,DEC020,001,2022_Nov_11_1440,2-25_cond_decay_EYE-try,2021.2.3,120.12949089970363,
left,0.75,1.0,0,1,0,1,0,2,0,2,0,1,3,13,4,,,,,,,,,,,,,,,1s,1037.386105973972,1038.387295300141,1038.3788256780244,None,1039.3785519080702,1039.803751384141,1039.3785519080702,1039.803751384141,1039.795400816016,None,1039.795400816016,None,space,0.3087986090686172,1039.795400816016,None,0.4213,1040.2359144950751,None,,,,,,,DEC020,001,2022_Nov_11_1440,2-25_cond_decay_EYE-try,2021.2.3,120.12949089970363,
left,1.0,0.75,1,1,0,1,0,2,0,2,0,1,4,14,7,,,,,,,,,,,,,,,1s,1041.2857274680864,1042.2874261301477,1042.278548031114,None,1043.2787991000805,1044.221047993051,1043.2787991000805,1044.221047993051,1044.221047993051,None,1044.221047993051,None,space,0.32462313096038997,1044.221047993051,None,0.938,1044.677870968124,None,,,,,,,DEC020,001,2022_Nov_11_1440,2-25_cond_decay_EYE-try,2021.2.3,120.12949089970363,
right,1.0,0.75,0,1,0,1,0,2,0,2,0,1,5,15,1,,,,,,,,,,,,,,,1s,1045.736305319937,1046.737302276073,1046.7289875629358,None,1047.7288985771593,1048.5533735749777,1047.7288985771593,1048.5533735749777,1048.5533735749777,None,1048.5533735749777,None,space,0.41078754398040473,1048.5533735749777,None,0.8251,1049.094367129961,None,,,,,,,DEC020,001,2022_Nov_11_1440,2-25_cond_decay_EYE-try,2021.2.3,120.12949089970363,
right,0.75,1.0,1,1,0,1,0,2,0,2,0,1,6,16,3,,,,,,,,,,,,,,,1s,1050.1523132331204,1051.15444939211,1051.1451372641604,None,1052.137245245045,1052.4544524559751,1052.137245245045,1052.4544524559751,1052.4544524559751,None,1052.4544524559751,None,space,0.3522479471284896,1052.4544524559751,None,0.3168,1052.9362409759779,None,,,,,,,DEC020,001,2022_Nov_11_1440,2-25_cond_decay_EYE-try,2021.2.3,120.12949089970363,
left,0.75,1.0,0,1,0,1,0,2,0,2,0,1,7,17,0,,,,,,,,,,,,,,,1s,1053.9939017610159,1054.9953192230314,1054.9870692531113,None,1055.9870261531323,1056.2872579761315,1055.9870261531323,1056.2872579761315,1056.2786956080236,None,1056.2786956080236,None,space,0.33604398206807673,1056.2786956080236,None,0.296,1056.7448547370732,None,,,,,,,DEC020,001,2022_Nov_11_1440,2-25_cond_decay_EYE-try,2021.2.3,120.12949089970363,
right,1.0,0.75,0,1,0,1,0,2,0,2,0,1,8,18,2,,,,,,,,,,,,,,,1s,1057.8025230290368,1058.8040071260184,1058.7869021261577,None,1059.7868843891192,1060.6627552979626,1059.7868843891192,1060.6627552979626,1060.6627552979626,None,1060.6627552979626,None,space,0.30984343588352203,1060.6627552979626,None,0.8735,1061.1026703889947,None,,,,,,,DEC020,001,2022_Nov_11_1440,2-25_cond_decay_EYE-try,2021.2.3,120.12949089970363,
right,1.0,0.75,0,1,0,1,0,2,0,2,0,1,9,19,6,,,,,,,,,,,,,,,1s,1062.1611361440737,1063.162290620152,1063.154016808141,None,1064.1540427180007,1064.3952889849897,1064.1540427180007,1064.3952889849897,1064.3952889849897,None,1064.3952889849897,None,space,0.9339290850330144,1064.3952889849897,None,0.2368,1065.4614334190264,None,,,,,,,DEC020,001,2022_Nov_11_1440,2-25_cond_decay_EYE-try,2021.2.3,120.12949089970363,
,,,,1,0,1,0,2,0,2,0,,,,,,,,,,,,,,,,,,,,,,,,,,,,,,,,,,,,,,,,,,,,,DEC020,001,2022_Nov_11_1440,2-25_cond_decay_EYE-try,2021.2.3,120.12949089970363,
right,1.0,0.75,0,1,0,1,0,3,0,3,0,0,0,0,7,,,,,,,,,1066.3525847420096,None,1066.3525847420096,None,1066.3525847420096,None,5s,1068.4361771119293,1069.4372365169693,1069.4292700299993,None,1070.4286990391556,1070.7042995661031,1070.4286990391556,1070.7042995661031,1070.7042995661031,None,1070.7042995661031,None,None,,1070.7042995661031,None,0.2743,1071.8293869050685,None,,,,,,,DEC020,001,2022_Nov_11_1440,2-25_cond_decay_EYE-try,2021.2.3,120.12949089970363,
left,0.75,1.0,0,1,0,1,0,3,0,3,0,0,1,1,0,,,,,,,,,,,,,,,5s,1072.8863136719447,1073.8872501670849,1073.8787412759848,None,1074.8788013320882,1076.9787096439395,1074.8788013320882,1076.9787096439395,1076.9711668931413,None,1076.9711668931413,None,space,0.3334279120899737,1076.9711668931413,None,2.0975,1077.4358368359972,None,,,,,,,DEC020,001,2022_Nov_11_1440,2-25_cond_decay_EYE-try,2021.2.3,120.12949089970363,
left,1.0,0.75,1,1,0,1,0,3,0,3,0,0,2,2,2,,,,,,,,,,,,,,,5s,1078.4948437791318,1079.4958289789502,1079.4796545719728,None,1080.4878249929752,1084.945810809033,1080.4878249929752,1084.945810809033,1084.9372721379623,None,1084.9372721379623,None,space,0.4032801219727844,1084.9372721379623,None,4.4542,1085.469494718127,None,,,,,,,DEC020,001,2022_Nov_11_1440,2-25_cond_decay_EYE-try,2021.2.3,120.12949089970363,
left,0.75,1.0,0,1,0,1,0,3,0,3,0,0,3,3,1,,,,,,,,,,,,,,,5s,1086.5281530770008,1087.5289615751244,1087.520694036968,None,1088.52070954605,1090.8795062550344,1088.52070954605,1090.8795062550344,1090.8795062550344,None,1090.8795062550344,None,space,0.3528188730124384,1090.8795062550344,None,2.3574,1091.3611492800992,None,,,,,,,DEC020,001,2022_Nov_11_1440,2-25_cond_decay_EYE-try,2021.2.3,120.12949089970363,
right,1.0,0.75,0,1,0,1,0,3,0,3,0,0,4,4,8,,,,,,,,,,,,,,,5s,1092.4124734729994,1093.4127337201498,1093.404359485954,None,1094.4047998681199,1098.4714830010198,1094.4047998681199,1098.4714830010198,1098.4714830010198,None,1098.4714830010198,None,space,0.3354706089012325,1098.4714830010198,None,4.064,1098.9360875990242,None,,,,,,,DEC020,001,2022_Nov_11_1440,2-25_cond_decay_EYE-try,2021.2.3,120.12949089970363,
right,1.0,0.75,0,1,0,1,0,3,0,3,0,0,5,5,4,,,,,,,,,,,,,,,5s,1099.9947418379597,1100.9960326640867,1100.9798250810709,None,1101.979791749036,1106.829743898008,1101.979791749036,1106.829743898008,1106.829743898008,None,1106.829743898008,None,space,0.3610728478524834,1106.829743898008,None,4.8438,1107.3200196591206,None,,,,,,,DEC020,001,2022_Nov_11_1440,2-25_cond_decay_EYE-try,2021.2.3,120.12949089970363,
left,0.75,1.0,0,1,0,1,0,3,0,3,0,0,6,6,3,,,,,,,,,,,,,,,5s,1108.37893440295,1109.3798265689984,1109.3707609709818,None,1110.371570311021,1112.1379432401154,1110.371570311021,1112.1379432401154,1112.1379432401154,None,1112.1379432401154,None,space,0.5587625231128186,1112.1379432401154,None,1.7671,1112.8282465010416,None,,,,,,,DEC020,001,2022_Nov_11_1440,2-25_cond_decay_EYE-try,2021.2.3,120.12949089970363,
right,1.0,0.75,0,1,0,1,0,3,0,3,0,0,7,7,9,,,,,,,,,,,,,,,5s,1113.8866641740315,1114.8884010801557,1114.871240488952,None,1115.87173527712,1117.720971598057,1115.87173527712,1117.720971598057,1117.720971598057,None,1117.720971598057,None,space,0.5340278919320554,1117.720971598057,None,1.8482,1118.3797669489868,None,,,,,,,DEC020,001,2022_Nov_11_1440,2-25_cond_decay_EYE-try,2021.2.3,120.12949089970363,
right,1.0,0.75,0,1,0,1,0,3,0,3,0,0,8,8,5,,,,,,,,,,,,,,,5s,1119.4380331900902,1120.4384159939364,1120.43006217503,None,1121.4298370841425,1126.3468341210391,1121.4298370841425,1126.3468341210391,1126.3468341210391,None,1126.3468341210391,None,space,0.33335612900555134,1126.3468341210391,None,4.9115,1126.8120812810957,None,,,,,,,DEC020,001,2022_Nov_11_1440,2-25_cond_decay_EYE-try,2021.2.3,120.12949089970363,
right,0.75,1.0,1,1,0,1,0,3,0,3,0,0,9,9,6,,,,,,,,,,,,,,,5s,1127.8618061761372,1128.8630639479961,1128.85449784901,None,1129.8551907730289,1132.738309442997,1129.8551907730289,1132.738309442997,1132.7293120981194,1133.7295731380582,1132.7293120981194,1133.7295731380582,None,,1132.7293120981194,1133.7295731380582,2.8781,1133.8618883651216,None,,,,,,,DEC020,001,2022_Nov_11_1440,2-25_cond_decay_EYE-try,2021.2.3,120.12949089970363,
right,1.0,0.75,0,1,0,1,0,3,0,3,0,1,0,10,8,,,,,,,,,,,,,,,5s,1134.9128113570623,1135.9133700439706,1135.9050020670984,None,1136.904720934108,1140.8711116390768,1136.904720934108,1140.8711116390768,1140.8711116390768,None,1140.8711116390768,None,space,0.776433905120939,1140.8711116390768,None,3.9677,1141.7781162350439,None,,,,,,,DEC020,001,2022_Nov_11_1440,2-25_cond_decay_EYE-try,2021.2.3,120.12949089970363,
right,1.0,0.75,0,1,0,1,0,3,0,3,0,1,1,11,9,,,,,,,,,,,,,,,5s,1142.8300343230367,1143.830390834948,1143.8212848140392,None,1144.8211232931353,1146.9551502410322,1144.8211232931353,1146.9551502410322,1146.9551502410322,None,1146.9551502410322,None,space,0.324851366924122,1146.9551502410322,None,2.1291,1147.4116256060079,None,,,,,,,DEC020,001,2022_Nov_11_1440,2-25_cond_decay_EYE-try,2021.2.3,120.12949089970363,
left,0.75,1.0,0,1,0,1,0,3,0,3,0,1,2,12,3,,,,,,,,,,,,,,,5s,1148.4705461501144,1149.4719235619996,1149.4635701959487,None,1150.463288340019,1150.8298244141042,1150.463288340019,1150.8298244141042,1150.8298244141042,None,1150.8298244141042,None,space,0.5277946770656854,1150.8298244141042,None,0.3677,1151.4872404769994,None,,,,,,,DEC020,001,2022_Nov_11_1440,2-25_cond_decay_EYE-try,2021.2.3,120.12949089970363,
left,1.0,0.75,1,1,0,1,0,3,0,3,0,1,3,13,2,,,,,,,,,,,,,,,5s,1152.5455787810497,1153.5464134840295,1153.5384057390038,None,1154.5380944870412,1154.7888476031367,1154.5380944870412,1154.7888476031367,1154.780196747044,1155.7801350681111,1154.780196747044,1155.7801350681111,None,,1154.780196747044,1155.7801350681111,0.2456,1155.9123089141212,None,,,,,,,DEC020,001,2022_Nov_11_1440,2-25_cond_decay_EYE-try,2021.2.3,120.12949089970363,
left,0.75,1.0,0,1,0,1,0,3,0,3,0,1,4,14,0,,,,,,,,,,,,,,,5s,1156.9615596509539,1157.963233310962,1157.9551123830024,None,1158.9550465969369,1160.9883406469598,1158.9550465969369,1160.9883406469598,1160.9883406469598,None,1160.9883406469598,None,space,0.3442353159189224,1160.9883406469598,None,2.0275,1161.4617484840564,None,,,,,,,DEC020,001,2022_Nov_11_1440,2-25_cond_decay_EYE-try,2021.2.3,120.12949089970363,
left,0.75,1.0,0,1,0,1,0,3,0,3,0,1,5,15,7,,,,,,,,,,,,,,,5s,1162.5132897561416,1163.513907287037,1163.5048124899622,None,1164.505088191945,1165.6050518390257,1164.505088191945,1165.6050518390257,1165.6050518390257,None,1165.6050518390257,None,space,0.4253459598403424,1165.6050518390257,None,1.096,1166.1623271300923,None,,,,,,,DEC020,001,2022_Nov_11_1440,2-25_cond_decay_EYE-try,2021.2.3,120.12949089970363,
right,1.0,0.75,0,1,0,1,0,3,0,3,0,1,6,16,4,,,,,,,,,,,,,,,5s,1167.2208261589985,1168.221763303969,1168.2133109781425,None,1169.213859390933,1172.0467283460312,1169.213859390933,1172.0467283460312,1172.0467283460312,None,1172.0467283460312,None,space,0.3441939330659807,1172.0467283460312,None,2.8326,1172.520676217042,None,,,,,,,DEC020,001,2022_Nov_11_1440,2-25_cond_decay_EYE-try,2021.2.3,120.12949089970363,
left,0.75,1.0,0,1,0,1,0,3,0,3,0,1,7,17,1,,,,,,,,,,,,,,,5s,1173.5721884761006,1174.571426164126,1174.5640828900505,None,1175.56388719799,1176.6300115119666,1175.56388719799,1176.6300115119666,1176.6300115119666,None,1176.6300115119666,None,space,0.36069728387519717,1176.6300115119666,None,1.0665,1177.1205648730975,None,,,,,,,DEC020,001,2022_Nov_11_1440,2-25_cond_decay_EYE-try,2021.2.3,120.12949089970363,
right,1.0,0.75,0,1,0,1,0,3,0,3,0,1,8,18,5,,,,,,,,,,,,,,,5s,1178.1789159190375,1179.1799129559658,1179.1718056120444,None,1180.171801818069,1184.5721785540227,1180.171801818069,1184.5721785540227,1184.563777819043,None,1184.563777819043,None,space,0.4110988269094378,1184.563777819043,None,4.3943,1185.1037157250103,None,,,,,,,DEC020,001,2022_Nov_11_1440,2-25_cond_decay_EYE-try,2021.2.3,120.12949089970363,
right,0.75,1.0,1,1,0,1,0,3,0,3,0,1,9,19,6,,,,,,,,,,,,,,,5s,1186.1618873390835,1187.1636461140588,1187.1556367019657,None,1188.1475856390316,1188.347165243933,1188.1475856390316,1188.347165243933,1188.347165243933,None,1188.347165243933,None,space,0.5255301080178469,1188.347165243933,None,0.1988,1189.0044959839433,None,,,,,,,DEC020,001,2022_Nov_11_1440,2-25_cond_decay_EYE-try,2021.2.3,120.12949089970363,
,,,,1,0,1,0,3,0,3,0,,,,,,,,,,,,,,,,,,,,,,,,,,,,,,,,,,,,,,,,,,,,,DEC020,001,2022_Nov_11_1440,2-25_cond_decay_EYE-try,2021.2.3,120.12949089970363,
,,,,1,0,1,0,,,,,,,,,,,,,,,,,,,,,,,,,,,,,,,,,,,,,,,,,,,1189.8961249541026,None,1189.8961249541026,None,1189.8961249541026,None,DEC020,001,2022_Nov_11_1440,2-25_cond_decay_EYE-try,2021.2.3,120.12949089970363,
left,1.0,0.75,1,2,0,2,0,0,0,0,0,0,0,0,8,,,,,,,,,1194.8958316689823,None,1194.8958316689823,None,1194.8958316689823,None,10s,1255.062902986072,1256.064071726054,1256.0566501319408,None,1257.056001364952,1262.464432042092,1257.056001364952,1262.464432042092,1262.464432042092,None,1262.464432042092,None,space,0.4171917480416596,1262.464432042092,None,5.4079,1263.0132076309528,None,,,,,,,DEC020,001,2022_Nov_11_1440,2-25_cond_decay_EYE-try,2021.2.3,120.12949089970363,
right,1.0,0.75,0,2,0,2,0,0,0,0,0,0,1,1,9,,,,,,,,,,,,,,,10s,1264.0717244860716,1265.0729802700225,1265.0647887210362,None,1266.0647619769443,1274.8146482249722,1266.0647619769443,1274.8146482249722,1274.8146482249722,None,1274.8146482249722,None,space,0.36106773209758103,1274.8146482249722,None,8.7495,1275.305114632938,None,,,,,,,DEC020,001,2022_Nov_11_1440,2-25_cond_decay_EYE-try,2021.2.3,120.12949089970363,
right,1.0,0.75,0,2,0,2,0,0,0,0,0,0,2,2,5,,,,,,,,,,,,,,,10s,1276.3636697931215,1277.3648316920735,1277.3567286371253,None,1278.3562940109987,1284.9984040909912,1278.3562940109987,1284.9984040909912,1284.9897446809337,None,1284.9897446809337,None,space,0.3441036979202181,1284.9897446809337,None,6.6412,1285.4634134401567,None,,,,,,,DEC020,001,2022_Nov_11_1440,2-25_cond_decay_EYE-try,2021.2.3,120.12949089970363,
right,0.75,1.0,1,2,0,2,0,0,0,0,0,0,3,3,7,,,,,,,,,,,,,,,10s,1286.5222381930798,1287.5231113289483,1287.5144816541579,None,1288.5060632110108,1294.4149357471615,1288.5060632110108,1294.4149357471615,1294.4149357471615,None,1294.4149357471615,None,space,0.40907215396873653,1294.4149357471615,None,5.905,1294.9555758021306,None,,,,,,,DEC020,001,2022_Nov_11_1440,2-25_cond_decay_EYE-try,2021.2.3,120.12949089970363,
left,0.75,1.0,0,2,0,2,0,0,0,0,0,0,4,4,1,,,,,,,,,,,,,,,10s,1296.0136976540089,1297.0151706810575,1297.006126384018,None,1298.0066446911078,1304.1729789120145,1298.0066446911078,1304.1729789120145,1304.1729789120145,None,1304.1729789120145,None,space,0.5446930080652237,1304.1729789120145,None,6.1652,1304.847141967155,None,,,,,,,DEC020,001,2022_Nov_11_1440,2-25_cond_decay_EYE-try,2021.2.3,120.12949089970363,
left,1.0,0.75,1,2,0,2,0,0,0,0,0,0,5,5,0,,,,,,,,,,,,,,,10s,1305.8987251380458,1306.8984508130234,1306.8901763539761,None,1307.8904744901229,1308.1655128251296,1307.8904744901229,1308.1655128251296,1308.1655128251296,None,1308.1655128251296,None,space,0.6582688780035824,1308.1655128251296,None,0.2701,1308.9554205201566,None,,,,,,,DEC020,001,2022_Nov_11_1440,2-25_cond_decay_EYE-try,2021.2.3,120.12949089970363,
left,0.75,1.0,0,2,0,2,0,0,0,0,0,0,6,6,3,,,,,,,,,,,,,,,10s,1310.0054684029892,1311.0061575830914,1310.9978201671038,None,1311.9985131940339,1314.7819748269394,1311.9985131940339,1314.7819748269394,1314.7734154779464,None,1314.7734154779464,None,space,0.36947957798838615,1314.7734154779464,None,2.7794,1315.2725200050045,None,,,,,,,DEC020,001,2022_Nov_11_1440,2-25_cond_decay_EYE-try,2021.2.3,120.12949089970363,
left,0.75,1.0,0,2,0,2,0,0,0,0,0,0,7,7,4,,,,,,,,,,,,,,,10s,1316.330567656085,1317.3321288761217,1317.3237338340841,None,1318.3239152519964,1323.5403302661143,1318.3239152519964,1323.5403302661143,1323.5403302661143,None,1323.5403302661143,None,space,0.3856600411236286,1323.5403302661143,None,5.2132,1324.0555901641492,None,,,,,,,DEC020,001,2022_Nov_11_1440,2-25_cond_decay_EYE-try,2021.2.3,120.12949089970363,
right,1.0,0.75,0,2,0,2,0,0,0,0,0,0,8,8,6,,,,,,,,,,,,,,,10s,1325.1060963289347,1326.1071363009978,1326.0986884220038,None,1327.0980739439838,1336.6489724619314,1327.0980739439838,1336.6489724619314,1336.6402332040016,None,1336.6402332040016,None,space,0.4257083139382303,1336.6402332040016,None,9.5443,1337.1904055951163,None,,,,,,,DEC020,001,2022_Nov_11_1440,2-25_cond_decay_EYE-try,2021.2.3,120.12949089970363,
right,1.0,0.75,0,2,0,2,0,0,0,0,0,0,9,9,2,,,,,,,,,,,,,,,10s,1338.2558552741539,1339.2570557170548,1339.2407354591414,None,1340.2400752850808,1341.940268689068,1340.2400752850808,1341.940268689068,1341.940268689068,None,1341.940268689068,None,space,0.4502112539485097,1341.940268689068,None,1.7002,1342.522016148083,None,,,,,,,DEC020,001,2022_Nov_11_1440,2-25_cond_decay_EYE-try,2021.2.3,120.12949089970363,
left,1.0,0.75,1,2,0,2,0,0,0,0,0,1,0,10,0,,,,,,,,,,,,,,,10s,1343.5805389231537,1344.5820412349422,1344.5736397099681,None,1345.5733115971088,1348.3904036390595,1345.5733115971088,1348.3904036390595,1348.3904036390595,None,1348.3904036390595,None,space,0.400371131952852,1348.3904036390595,None,2.8148,1348.9224514160305,None,,,,,,,DEC020,001,2022_Nov_11_1440,2-25_cond_decay_EYE-try,2021.2.3,120.12949089970363,
left,0.75,1.0,0,2,0,2,0,0,0,0,0,1,1,11,1,,,,,,,,,,,,,,,10s,1349.9741678261198,1350.9734861429315,1350.9652948670555,None,1351.9656701800413,1357.4157668149564,1351.9656701800413,1357.4157668149564,1357.4157668149564,None,1357.4157668149564,None,space,0.33510719891637564,1357.4157668149564,None,5.4444,1357.8811450570356,None,,,,,,,DEC020,001,2022_Nov_11_1440,2-25_cond_decay_EYE-try,2021.2.3,120.12949089970363,
left,0.75,1.0,0,2,0,2,0,0,0,0,0,1,2,12,4,,,,,,,,,,,,,,,10s,1358.9390229270793,1359.9405851869378,1359.923604554031,None,1360.923717789119,1370.4235565720592,1360.923717789119,1370.4235565720592,1370.4235565720592,None,1370.4235565720592,None,space,0.4006636890117079,1370.4235565720592,None,9.4981,1370.94937587413,None,,,,,,,DEC020,001,2022_Nov_11_1440,2-25_cond_decay_EYE-try,2021.2.3,120.12949089970363,
right,1.0,0.75,0,2,0,2,0,0,0,0,0,1,3,13,2,,,,,,,,,,,,,,,10s,1372.0161692861002,1373.015559725929,1373.0074636030477,None,1374.0075411139987,1381.1906429079827,1374.0075411139987,1381.1906429079827,1381.1821546619758,None,1381.1821546619758,None,space,0.45115141617134213,1381.1821546619758,None,7.1815,1381.7647646791302,None,,,,,,,DEC020,001,2022_Nov_11_1440,2-25_cond_decay_EYE-try,2021.2.3,120.12949089970363,
right,1.0,0.75,0,2,0,2,0,0,0,0,0,1,4,14,6,,,,,,,,,,,,,,,10s,1382.8224290600047,1383.8245416639838,1383.8161672230344,None,1384.8162072030827,1393.116217307048,1384.8162072030827,1393.116217307048,1393.116217307048,None,1393.116217307048,None,space,0.4027750249952078,1393.116217307048,None,8.3003,1393.6478731441312,None,,,,,,,DEC020,001,2022_Nov_11_1440,2-25_cond_decay_EYE-try,2021.2.3,120.12949089970363,
right,1.0,0.75,0,2,0,2,0,0,0,0,0,1,5,15,5,,,,,,,,,,,,,,,10s,1394.706232791068,1395.7078588430304,1395.6994571569376,None,1396.6989558250643,1402.5660555160139,1396.6989558250643,1402.5660555160139,1402.557385514956,None,1402.557385514956,None,space,0.34450462693348527,1402.557385514956,None,5.8614,1403.0319036601577,None,,,,,,,DEC020,001,2022_Nov_11_1440,2-25_cond_decay_EYE-try,2021.2.3,120.12949089970363,
right,1.0,0.75,0,2,0,2,0,0,0,0,0,1,6,16,9,,,,,,,,,,,,,,,10s,1404.0815014899708,1405.0831632399932,1405.0739280520938,None,1406.0741951810196,1411.7660052920692,1406.0741951810196,1411.7660052920692,1411.7573523949832,None,1411.7573523949832,None,space,0.35258499695919454,1411.7573523949832,None,5.6861,1412.2395803860854,None,,,,,,,DEC020,001,2022_Nov_11_1440,2-25_cond_decay_EYE-try,2021.2.3,120.12949089970363,
right,0.75,1.0,1,2,0,2,0,0,0,0,0,1,7,17,7,,,,,,,,,,,,,,,10s,1413.2981122841593,1414.2991973590106,1414.291195660131,None,1415.291025940096,1419.2742141771596,1415.291025940096,1419.2742141771596,1419.2657254170626,None,1419.2657254170626,None,space,0.4532092879526317,1419.2657254170626,None,3.9758,1419.848191492958,None,,,,,,,DEC020,001,2022_Nov_11_1440,2-25_cond_decay_EYE-try,2021.2.3,120.12949089970363,
left,0.75,1.0,0,2,0,2,0,0,0,0,0,1,8,18,8,,,,,,,,,,,,,,,10s,1420.9071271801367,1421.9080839210656,1421.8997454261407,None,1422.8998103810009,1427.0577195670921,1422.8998103810009,1427.0577195670921,1427.0577195670921,None,1427.0577195670921,None,space,0.3860463071614504,1427.0577195670921,None,4.1562,1427.5731977750547,None,,,,,,,DEC020,001,2022_Nov_11_1440,2-25_cond_decay_EYE-try,2021.2.3,120.12949089970363,
left,0.75,1.0,0,2,0,2,0,0,0,0,0,1,9,19,3,,,,,,,,,,,,,,,10s,1428.6320314209443,1429.6332712541334,1429.624291578075,None,1430.624743646942,1435.882966810139,1430.624743646942,1435.882966810139,1435.882966810139,None,1435.882966810139,None,space,0.377346090041101,1435.882966810139,None,5.258,1436.3903776269872,None,,,,,,,DEC020,001,2022_Nov_11_1440,2-25_cond_decay_EYE-try,2021.2.3,120.12949089970363,
,,,,2,0,2,0,0,0,0,0,,,,,,,,,,,,,,,,,,,,,,,,,,,,,,,,,,,,,,,,,,,,,DEC020,001,2022_Nov_11_1440,2-25_cond_decay_EYE-try,2021.2.3,120.12949089970363,
right,1.0,0.75,0,2,0,2,0,1,0,1,0,0,0,0,7,,,,,,,,,1437.2819656350184,None,1437.2819656350184,None,1437.2819656350184,None,5s,1441.0148867650423,1442.0165147171356,1442.0082497440744,None,1443.0077678770758,1446.7410714619327,1443.0077678770758,1446.7410714619327,1446.733507832978,None,1446.733507832978,None,space,0.3522329980041832,1446.733507832978,None,3.7271,1447.2147701161448,None,,,,,,,DEC020,001,2022_Nov_11_1440,2-25_cond_decay_EYE-try,2021.2.3,120.12949089970363,
left,0.75,1.0,0,2,0,2,0,1,0,1,0,0,1,1,5,,,,,,,,,,,,,,,5s,1448.2737814621069,1449.2749032520223,1449.266677255975,None,1450.2670056000352,1452.3002973799594,1450.2670056000352,1452.3002973799594,1452.3002973799594,None,1452.3002973799594,None,space,0.5080555509775877,1452.3002973799594,None,2.0273,1452.9404795139562,None,,,,,,,DEC020,001,2022_Nov_11_1440,2-25_cond_decay_EYE-try,2021.2.3,120.12949089970363,
right,0.75,1.0,1,2,0,2,0,1,0,1,0,0,2,2,1,,,,,,,,,,,,,,,5s,1453.9991811779328,1455.000173062086,1454.9920090350788,None,1455.991161233047,1459.6577658441383,1455.991161233047,1459.6577658441383,1459.6577658441383,None,1459.6577658441383,None,space,0.4284502191003412,1459.6577658441383,None,3.6616,1460.2154124299996,None,,,,,,,DEC020,001,2022_Nov_11_1440,2-25_cond_decay_EYE-try,2021.2.3,120.12949089970363,
right,1.0,0.75,0,2,0,2,0,1,0,1,0,0,3,3,8,,,,,,,,,,,,,,,5s,1461.2731667261105,1462.2752648801543,1462.2668429319747,None,1463.266321060015,1464.0503724259324,1463.266321060015,1464.0503724259324,1464.0503724259324,None,1464.0503724259324,None,space,0.5018580709584057,1464.0503724259324,None,0.7843,1464.6823961350601,None,,,,,,,DEC020,001,2022_Nov_11_1440,2-25_cond_decay_EYE-try,2021.2.3,120.12949089970363,
right,1.0,0.75,0,2,0,2,0,1,0,1,0,0,4,4,0,,,,,,,,,,,,,,,5s,1465.7409412830602,1466.741733187111,1466.7327995100059,None,1467.7334140590392,1470.7579520449508,1467.7334140590392,1470.7579520449508,1470.7503002260346,None,1470.7503002260346,None,space,0.3525995519012213,1470.7503002260346,None,3.0184,1471.2319714359473,None,,,,,,,DEC020,001,2022_Nov_11_1440,2-25_cond_decay_EYE-try,2021.2.3,120.12949089970363,
left,0.75,1.0,0,2,0,2,0,1,0,1,0,0,5,5,3,,,,,,,,,,,,,,,5s,1472.2906117511448,1473.2913650770206,1473.2833258360624,None,1474.283210417023,1476.8669779221527,1474.283210417023,1476.8669779221527,1476.8669779221527,None,1476.8669779221527,None,space,0.40283854003064334,1476.8669779221527,None,2.5836,1477.39870663709,None,,,,,,,DEC020,001,2022_Nov_11_1440,2-25_cond_decay_EYE-try,2021.2.3,120.12949089970363,
left,1.0,0.75,1,2,0,2,0,1,0,1,0,0,6,6,9,,,,,,,,,,,,,,,5s,1478.4488282669336,1479.4502184060402,1479.4418877831195,None,1480.442163652042,1481.308130101068,1480.442163652042,1481.308130101068,1481.308130101068,None,1481.308130101068,None,space,0.4117134988773614,1481.308130101068,None,0.8659,1481.848702966934,None,,,,,,,DEC020,001,2022_Nov_11_1440,2-25_cond_decay_EYE-try,2021.2.3,120.12949089970363,
left,0.75,1.0,0,2,0,2,0,1,0,1,0,0,7,7,2,,,,,,,,,,,,,,,5s,1482.8987314121332,1483.9006291630212,1483.8923460610677,None,1484.8915026269387,1486.2502168449573,1484.8915026269387,1486.2502168449573,1486.2502168449573,None,1486.2502168449573,None,space,0.32611588994041085,1486.2502168449573,None,1.357,1486.7069337689318,None,,,,,,,DEC020,001,2022_Nov_11_1440,2-25_cond_decay_EYE-try,2021.2.3,120.12949089970363,
right,1.0,0.75,0,2,0,2,0,1,0,1,0,0,8,8,4,,,,,,,,,,,,,,,5s,1487.7661717659794,1488.767259902088,1488.7590578179806,None,1489.7589923480991,1492.3423984800465,1489.7589923480991,1492.3423984800465,1492.3337458251044,None,1492.3337458251044,None,space,0.36926185293123126,1492.3337458251044,None,2.5771,1492.8325793209951,None,,,,,,,DEC020,001,2022_Nov_11_1440,2-25_cond_decay_EYE-try,2021.2.3,120.12949089970363,
left,0.75,1.0,0,2,0,2,0,1,0,1,0,0,9,9,6,,,,,,,,,,,,,,,5s,1493.890556726139,1494.891912683146,1494.883479095064,None,1495.8841167499777,1500.000051541021,1495.8841167499777,1500.000051541021,1500.000051541021,None,1500.000051541021,None,space,0.4195622669067234,1500.000051541021,None,4.116,1500.5495388670824,None,,,,,,,DEC020,001,2022_Nov_11_1440,2-25_cond_decay_EYE-try,2021.2.3,120.12949089970363,
left,0.75,1.0,0,2,0,2,0,1,0,1,0,1,0,10,3,,,,,,,,,,,,,,,5s,1501.6073908179533,1502.6090409690514,1502.6000832610298,None,1503.6008178440388,1507.4249385159928,1503.6008178440388,1507.4249385159928,1507.4170789569616,None,1507.4170789569616,None,space,0.4526529829017818,1507.4170789569616,None,3.8177,1507.9994181930088,None,,,,,,,DEC020,001,2022_Nov_11_1440,2-25_cond_decay_EYE-try,2021.2.3,120.12949089970363,
left,0.75,1.0,0,2,0,2,0,1,0,1,0,1,1,11,5,,,,,,,,,,,,,,,5s,1509.0578384120017,1510.0589824940544,1510.042303759139,None,1511.0421467081178,1514.6422355480026,1511.0421467081178,1514.6422355480026,1514.6422355480026,None,1514.6422355480026,None,space,0.3942486480809748,1514.6422355480026,None,3.5966,1515.16547584394,None,,,,,,,DEC020,001,2022_Nov_11_1440,2-25_cond_decay_EYE-try,2021.2.3,120.12949089970363,
right,1.0,0.75,0,2,0,2,0,1,0,1,0,1,2,12,7,,,,,,,,,,,,,,,5s,1516.217500837054,1517.2169688600115,1517.2088740209583,None,1518.2088523900602,1519.450140970992,1518.2088523900602,1519.450140970992,1519.450140970992,None,1519.450140970992,None,space,0.4858064360450953,1519.450140970992,None,1.2396,1520.066090425942,None,,,,,,,DEC020,001,2022_Nov_11_1440,2-25_cond_decay_EYE-try,2021.2.3,120.12949089970363,
left,1.0,0.75,1,2,0,2,0,1,0,1,0,1,3,13,9,,,,,,,,,,,,,,,5s,1521.1177924110088,1522.1177161959931,1522.1094038770534,None,1523.108757785987,1524.166826233035,1523.108757785987,1524.166826233035,1524.166826233035,None,1524.166826233035,None,None,,1524.166826233035,None,1.0526,1525.290850568097,None,,,,,,,DEC020,001,2022_Nov_11_1440,2-25_cond_decay_EYE-try,2021.2.3,120.12949089970363,
left,0.75,1.0,0,2,0,2,0,1,0,1,0,1,4,14,6,,,,,,,,,,,,,,,5s,1526.3495842600241,1527.3502374121454,1527.334497452015,None,1528.3337667880114,1530.4837742261589,1528.3337667880114,1530.4837742261589,1530.4837742261589,None,1530.4837742261589,None,None,,1530.4837742261589,None,2.1472,1531.6006923760287,None,,,,,,,DEC020,001,2022_Nov_11_1440,2-25_cond_decay_EYE-try,2021.2.3,120.12949089970363,
right,1.0,0.75,0,2,0,2,0,1,0,1,0,1,5,15,4,,,,,,,,,,,,,,,5s,1532.666212616954,1533.6672901811544,1533.6587002391461,None,1534.6594258090481,1535.409005110152,1534.6594258090481,1535.409005110152,1535.409005110152,None,1535.409005110152,None,space,0.3107853848487139,1535.409005110152,None,0.7457,1535.8495644179638,None,,,,,,,DEC020,001,2022_Nov_11_1440,2-25_cond_decay_EYE-try,2021.2.3,120.12949089970363,
right,1.0,0.75,0,2,0,2,0,1,0,1,0,1,6,16,0,,,,,,,,,,,,,,,5s,1536.8993085830007,1537.9008439790923,1537.8844426569995,None,1538.8841743241064,1542.1090286620893,1538.8841743241064,1542.1090286620893,1542.1090286620893,None,1542.1090286620893,None,space,0.33568330318666995,1542.1090286620893,None,3.2231,1542.574338403996,None,,,,,,,DEC020,001,2022_Nov_11_1440,2-25_cond_decay_EYE-try,2021.2.3,120.12949089970363,
left,0.75,1.0,0,2,0,2,0,1,0,1,0,1,7,17,2,,,,,,,,,,,,,,,5s,1543.6333228060976,1544.633532230975,1544.626159280073,None,1545.6253820171114,1548.1338962330483,1545.6253820171114,1548.1338962330483,1548.1338962330483,None,1548.1338962330483,None,space,0.33602193905971944,1548.1338962330483,None,2.5033,1548.5995536230039,None,,,,,,,DEC020,001,2022_Nov_11_1440,2-25_cond_decay_EYE-try,2021.2.3,120.12949089970363,
right,1.0,0.75,0,2,0,2,0,1,0,1,0,1,8,18,8,,,,,,,,,,,,,,,5s,1549.6505040889606,1550.6509959611576,1550.6430786119308,None,1551.6424282270018,1554.2093429900706,1551.6424282270018,1554.2093429900706,1554.2093429900706,None,1554.2093429900706,None,space,0.3416910369414836,1554.2093429900706,None,2.5636,1554.6835447531193,None,,,,,,,DEC020,001,2022_Nov_11_1440,2-25_cond_decay_EYE-try,2021.2.3,120.12949089970363,
right,0.75,1.0,1,2,0,2,0,1,0,1,0,1,9,19,1,,,,,,,,,,,,,,,5s,1555.741399029037,1556.7425075920764,1556.7342502309475,None,1557.734308331972,1561.3673142739572,1557.734308331972,1561.3673142739572,1561.3673142739572,None,1561.3673142739572,None,space,0.3926075629424304,1561.3673142739572,None,3.6342,1561.8914061549585,None,,,,,,,DEC020,001,2022_Nov_11_1440,2-25_cond_decay_EYE-try,2021.2.3,120.12949089970363,
,,,,2,0,2,0,1,0,1,0,,,,,,,,,,,,,,,,,,,,,,,,,,,,,,,,,,,,,,,,,,,,,DEC020,001,2022_Nov_11_1440,2-25_cond_decay_EYE-try,2021.2.3,120.12949089970363,
left,1.0,0.75,1,2,0,2,0,2,0,2,0,0,0,0,8,,,,,,,,,1562.782911377959,None,1562.782911377959,None,1562.782911377959,None,3s,1565.7326623240951,1566.7344003440812,1566.7262690791395,None,1567.7263119299896,1568.684104355052,1567.7263119299896,1568.684104355052,1568.684104355052,None,1568.684104355052,None,space,0.418977988185361,1568.684104355052,None,0.9567,1569.2334789810702,None,,,,,,,DEC020,001,2022_Nov_11_1440,2-25_cond_decay_EYE-try,2021.2.3,120.12949089970363,
right,1.0,0.75,0,2,0,2,0,2,0,2,0,0,1,1,9,,,,,,,,,,,,,,,3s,1570.292062018998,1571.2928620360326,1571.2844803340267,None,1572.2843407529872,1572.960047991015,1572.2843407529872,1572.960047991015,1572.960047991015,None,1572.960047991015,None,space,0.4000896231736988,1572.960047991015,None,0.676,1573.4917172270361,None,,,,,,,DEC020,001,2022_Nov_11_1440,2-25_cond_decay_EYE-try,2021.2.3,120.12949089970363,
left,1.0,0.75,1,2,0,2,0,2,0,2,0,0,2,2,5,,,,,,,,,,,,,,,3s,1574.5504284610506,1575.5512956411112,1575.543101987103,None,1576.5433426960371,1577.1931582191028,1576.5433426960371,1577.1931582191028,1577.1844723240938,None,1577.1844723240938,None,space,0.3340277059469372,1577.1844723240938,None,0.6428,1577.6495078380685,None,,,,,,,DEC020,001,2022_Nov_11_1440,2-25_cond_decay_EYE-try,2021.2.3,120.12949089970363,
right,1.0,0.75,0,2,0,2,0,2,0,2,0,0,3,3,1,,,,,,,,,,,,,,,3s,1578.7082257519942,1579.709891167935,1579.692682215944,None,1580.6932076099329,1581.3180104340427,1580.6932076099329,1581.3180104340427,1581.3180104340427,None,1581.3180104340427,None,space,0.34378114785067737,1581.3180104340427,None,0.6242,1581.7912861539517,None,,,,,,,DEC020,001,2022_Nov_11_1440,2-25_cond_decay_EYE-try,2021.2.3,120.12949089970363,
right,1.0,0.75,0,2,0,2,0,2,0,2,0,0,4,4,3,,,,,,,,,,,,,,,3s,1582.8505040290765,1583.8512033340521,1583.8429825571366,None,1584.843000055058,1587.7761713210493,1584.843000055058,1587.7761713210493,1587.7761713210493,None,1587.7761713210493,None,space,0.6089654420502484,1587.7761713210493,None,2.9345,1588.5169506601524,None,,,,,,,DEC020,001,2022_Nov_11_1440,2-25_cond_decay_EYE-try,2021.2.3,120.12949089970363,
left,0.75,1.0,0,2,0,2,0,2,0,2,0,0,5,5,2,,,,,,,,,,,,,,,3s,1589.574521288043,1590.5760464251507,1590.5598371231463,None,1591.5598283449654,1591.884493004065,1591.5598283449654,1591.884493004065,1591.884493004065,None,1591.884493004065,None,space,0.5772534869611263,1591.884493004065,None,0.3187,1592.5921689050738,None,,,,,,,DEC020,001,2022_Nov_11_1440,2-25_cond_decay_EYE-try,2021.2.3,120.12949089970363,
right,0.75,1.0,1,2,0,2,0,2,0,2,0,0,6,6,4,,,,,,,,,,,,,,,3s,1593.6502644780558,1594.6509385260288,1594.6427802881226,None,1595.6431528790854,1597.9759986079298,1595.6431528790854,1597.9759986079298,1597.9759986079298,None,1597.9759986079298,None,space,0.43644401989877224,1597.9759986079298,None,2.3275,1598.5414675700013,None,,,,,,,DEC020,001,2022_Nov_11_1440,2-25_cond_decay_EYE-try,2021.2.3,120.12949089970363,
right,1.0,0.75,0,2,0,2,0,2,0,2,0,0,7,7,7,,,,,,,,,,,,,,,3s,1599.599829579005,1600.6018970571458,1600.5926511001308,None,1601.5932940901257,1602.9266105920542,1601.5932940901257,1602.9266105920542,1602.9266105920542,None,1602.9266105920542,None,space,0.38544922019355,1602.9266105920542,None,1.3337,1603.4418898250442,None,,,,,,,DEC020,001,2022_Nov_11_1440,2-25_cond_decay_EYE-try,2021.2.3,120.12949089970363,
left,0.75,1.0,0,2,0,2,0,2,0,2,0,0,8,8,0,,,,,,,,,,,,,,,3s,1604.4919802511577,1605.4928999040276,1605.4845074601471,None,1606.4847534771543,1608.4180060960352,1606.4847534771543,1608.4180060960352,1608.4100284921005,1609.4102449279744,1608.4100284921005,1609.4102449279744,None,,1608.4100284921005,1609.4102449279744,1.9287,1609.5423007230274,None,,,,,,,DEC020,001,2022_Nov_11_1440,2-25_cond_decay_EYE-try,2021.2.3,120.12949089970363,
left,0.75,1.0,0,2,0,2,0,2,0,2,0,0,9,9,6,,,,,,,,,,,,,,,3s,1610.6005172750447,1611.6019245421048,1611.5934813099448,None,1612.59357465012,1613.5933763289358,1612.59357465012,1613.5933763289358,1613.584834859008,1614.5848585499916,1613.584834859008,1614.5848585499916,None,,1613.584834859008,1614.5848585499916,0.995,1614.7096804000903,None,,,,,,,DEC020,001,2022_Nov_11_1440,2-25_cond_decay_EYE-try,2021.2.3,120.12949089970363,
left,0.75,1.0,0,2,0,2,0,2,0,2,0,1,0,10,0,,,,,,,,,,,,,,,3s,1615.766916936962,1616.7677713590674,1616.760449077934,None,1617.7597719370387,1619.2846900550649,1617.7597719370387,1619.2846900550649,1619.2846900550649,None,1619.2846900550649,None,space,0.3529993579722941,1619.2846900550649,None,1.5251,1619.7671562291216,None,,,,,,,DEC020,001,2022_Nov_11_1440,2-25_cond_decay_EYE-try,2021.2.3,120.12949089970363,
left,0.75,1.0,0,2,0,2,0,2,0,2,0,1,1,11,6,,,,,,,,,,,,,,,3s,1620.82492721593,1621.8265473649371,1621.8186154940631,None,1622.8187172261532,1624.0266747211572,1622.8187172261532,1624.0266747211572,1624.017925326014,None,1624.017925326014,None,space,0.3428555531427264,1624.017925326014,None,1.2045,1624.4920144891366,None,,,,,,,DEC020,001,2022_Nov_11_1440,2-25_cond_decay_EYE-try,2021.2.3,120.12949089970363,
right,1.0,0.75,0,2,0,2,0,2,0,2,0,1,2,12,9,,,,,,,,,,,,,,,3s,1625.5509590159636,1626.5516712281387,1626.5436393979471,None,1627.543500347063,1630.0263051500078,1627.543500347063,1630.0263051500078,1630.0263051500078,None,1630.0263051500078,None,space,0.3172102249227464,1630.0263051500078,None,2.4828,1630.475025339052,None,,,,,,,DEC020,001,2022_Nov_11_1440,2-25_cond_decay_EYE-try,2021.2.3,120.12949089970363,
right,1.0,0.75,0,2,0,2,0,2,0,2,0,1,3,13,3,,,,,,,,,,,,,,,3s,1631.5341720180586,1632.53555499902,1632.5272964481264,None,1633.5263687199913,1636.526392958127,1633.5263687199913,1636.526392958127,1636.526392958127,None,1636.526392958127,None,space,0.2942956609185785,1636.526392958127,None,2.9966,1636.9510803881567,None,,,,,,,DEC020,001,2022_Nov_11_1440,2-25_cond_decay_EYE-try,2021.2.3,120.12949089970363,
right,1.0,0.75,0,2,0,2,0,2,0,2,0,1,4,14,1,,,,,,,,,,,,,,,3s,1638.0008525170851,1639.0018484571483,1638.9934941851534,None,1639.9930316661485,1640.7013413941022,1639.9930316661485,1640.7013413941022,1640.7013413941022,None,1640.7013413941022,None,space,0.3284715348854661,1640.7013413941022,None,0.7093,1641.1592214819975,None,,,,,,,DEC020,001,2022_Nov_11_1440,2-25_cond_decay_EYE-try,2021.2.3,120.12949089970363,
left,0.75,1.0,0,2,0,2,0,2,0,2,0,1,5,15,8,,,,,,,,,,,,,,,3s,1642.217112586135,1643.218361763982,1643.2099131911527,None,1644.2103670050856,1645.393264156999,1644.2103670050856,1645.393264156999,1645.385534135159,None,1645.385534135159,None,space,0.36703232303261757,1645.385534135159,None,1.1766,1645.8836337809917,None,,,,,,,DEC020,001,2022_Nov_11_1440,2-25_cond_decay_EYE-try,2021.2.3,120.12949089970363,
right,1.0,0.75,0,2,0,2,0,2,0,2,0,1,6,16,7,,,,,,,,,,,,,,,3s,1646.9423048840836,1647.9433547300287,1647.9352418379858,None,1648.9351191350725,1649.8272297419608,1648.9351191350725,1649.8272297419608,1649.818484927062,None,1649.818484927062,None,space,0.4614854280371219,1649.818484927062,None,0.8855,1650.409393896116,None,,,,,,,DEC020,001,2022_Nov_11_1440,2-25_cond_decay_EYE-try,2021.2.3,120.12949089970363,
left,1.0,0.75,1,2,0,2,0,2,0,2,0,1,7,17,5,,,,,,,,,,,,,,,3s,1651.4668276500888,1652.468271044083,1652.4598172029946,None,1653.4602413401008,1654.893568159081,1653.4602413401008,1654.893568159081,1654.8851411649957,None,1654.8851411649957,None,space,0.41699650790542364,1654.8851411649957,None,1.4266,1655.4272561189719,None,,,,,,,DEC020,001,2022_Nov_11_1440,2-25_cond_decay_EYE-try,2021.2.3,120.12949089970363,
right,0.75,1.0,1,2,0,2,0,2,0,2,0,1,8,18,4,,,,,,,,,,,,,,,3s,1656.4928526780568,1657.49387384695,1657.4768658259418,None,1658.4859492951073,1660.4023555500899,1658.4859492951073,1660.4023555500899,1660.3939960889984,None,1660.3939960889984,None,space,0.4017936179880053,1660.3939960889984,None,1.9105,1660.925287551945,None,,,,,,,DEC020,001,2022_Nov_11_1440,2-25_cond_decay_EYE-try,2021.2.3,120.12949089970363,
left,0.75,1.0,0,2,0,2,0,2,0,2,0,1,9,19,2,,,,,,,,,,,,,,,3s,1661.9836437229533,1662.9853221820667,1662.9768369169906,None,1663.9770813151263,1665.3851915281266,1663.9770813151263,1665.3851915281266,1665.3851915281266,None,1665.3851915281266,None,space,0.3510514898225665,1665.3851915281266,None,1.4046,1665.8673866731115,None,,,,,,,DEC020,001,2022_Nov_11_1440,2-25_cond_decay_EYE-try,2021.2.3,120.12949089970363,
,,,,2,0,2,0,2,0,2,0,,,,,,,,,,,,,,,,,,,,,,,,,,,,,,,,,,,,,,,,,,,,,DEC020,001,2022_Nov_11_1440,2-25_cond_decay_EYE-try,2021.2.3,120.12949089970363,
right,1.0,0.75,0,2,0,2,0,3,0,3,0,0,0,0,6,,,,,,,,,1666.7592960749753,None,1666.7592960749753,None,1666.7592960749753,None,1s,1671.244428409962,1672.2440108719748,1672.2354924220126,None,1673.2350752591155,1673.9438479209784,1673.2350752591155,1673.9438479209784,1673.936099300161,None,1673.936099300161,None,space,0.3581788809970021,1673.936099300161,None,0.7022,1674.4261057761032,None,,,,,,,DEC020,001,2022_Nov_11_1440,2-25_cond_decay_EYE-try,2021.2.3,120.12949089970363,
left,0.75,1.0,0,2,0,2,0,3,0,3,0,0,1,1,3,,,,,,,,,,,,,,,1s,1675.4840375659987,1676.4851930700243,1676.4770926900674,None,1677.476860075025,1678.0018445069436,1677.476860075025,1678.0018445069436,1677.994416730944,None,1677.994416730944,None,space,0.33299425593577325,1677.994416730944,None,0.5236,1678.452835282078,None,,,,,,,DEC020,001,2022_Nov_11_1440,2-25_cond_decay_EYE-try,2021.2.3,120.12949089970363,
left,1.0,0.75,1,2,0,2,0,3,0,3,0,0,2,2,4,,,,,,,,,,,,,,,1s,1679.5092015559785,1680.5108285790775,1680.4938787100837,None,1681.5024039549753,1681.8858120250516,1681.5024039549753,1681.8858120250516,1681.877191600157,None,1681.877191600157,None,space,0.31934237899258733,1681.877191600157,None,0.3812,1682.3257195409387,None,,,,,,,DEC020,001,2022_Nov_11_1440,2-25_cond_decay_EYE-try,2021.2.3,120.12949089970363,
right,1.0,0.75,0,2,0,2,0,3,0,3,0,0,3,3,1,,,,,,,,,,,,,,,1s,1683.38392545213,1684.3861667199526,1684.3777459671255,None,1685.3772247689776,1686.0859093980398,1685.3772247689776,1686.0859093980398,1686.077266731998,None,1686.077266731998,None,space,0.3025700480211526,1686.077266731998,None,0.7044,1686.5094169250224,None,,,,,,,DEC020,001,2022_Nov_11_1440,2-25_cond_decay_EYE-try,2021.2.3,120.12949089970363,
left,0.75,1.0,0,2,0,2,0,3,0,3,0,0,4,4,8,,,,,,,,,,,,,,,1s,1687.5612678839825,1688.5608295919374,1688.5524929061066,None,1689.551861108048,1689.8603690620512,1689.551861108048,1689.8603690620512,1689.8603690620512,None,1689.8603690620512,None,space,0.319357642903924,1689.8603690620512,None,0.3071,1690.3093344890513,None,,,,,,,DEC020,001,2022_Nov_11_1440,2-25_cond_decay_EYE-try,2021.2.3,120.12949089970363,
right,0.75,1.0,1,2,0,2,0,3,0,3,0,0,5,5,2,,,,,,,,,,,,,,,1s,1691.367510461947,1692.3688461880665,1692.3526363209821,None,1693.3526420220733,1693.636068827007,1693.3526420220733,1693.636068827007,1693.636068827007,None,1693.636068827007,None,space,0.31711364397779107,1693.636068827007,None,0.2829,1694.0847401521169,None,,,,,,,DEC020,001,2022_Nov_11_1440,2-25_cond_decay_EYE-try,2021.2.3,120.12949089970363,
right,1.0,0.75,0,2,0,2,0,3,0,3,0,0,6,6,9,,,,,,,,,,,,,,,1s,1695.1361243049614,1696.135835062014,1696.127587527968,None,1697.1275757630356,1697.8529061139561,1697.1275757630356,1697.8529061139561,1697.8529061139561,None,1697.8529061139561,None,space,0.2588614879641682,1697.8529061139561,None,0.7198,1698.2427293299697,None,,,,,,,DEC020,001,2022_Nov_11_1440,2-25_cond_decay_EYE-try,2021.2.3,120.12949089970363,
right,1.0,0.75,0,2,0,2,0,3,0,3,0,0,7,7,7,,,,,,,,,,,,,,,1s,1699.2927263639867,1700.2946415320039,1700.2854912269395,None,1701.2863425440155,1701.6441727140918,1701.2863425440155,1701.6441727140918,1701.6441727140918,None,1701.6441727140918,None,space,0.33623709389939904,1701.6441727140918,None,0.3523,1702.109601204982,None,,,,,,,DEC020,001,2022_Nov_11_1440,2-25_cond_decay_EYE-try,2021.2.3,120.12949089970363,
left,0.75,1.0,0,2,0,2,0,3,0,3,0,0,8,8,5,,,,,,,,,,,,,,,1s,1703.1683566560969,1704.1694293550681,1704.160911865998,None,1705.160973984981,1705.7105946650263,1705.160973984981,1705.7105946650263,1705.7105946650263,None,1705.7105946650263,None,space,0.29395662387833,1705.7105946650263,None,0.5474,1706.1345313061029,None,,,,,,,DEC020,001,2022_Nov_11_1440,2-25_cond_decay_EYE-try,2021.2.3,120.12949089970363,
right,1.0,0.75,0,2,0,2,0,3,0,3,0,0,9,9,0,,,,,,,,,,,,,,,1s,1707.192564290017,1708.1947364259977,1708.1856008011382,None,1709.1863269109745,1710.1274725510739,1709.1863269109745,1710.1274725510739,1710.1274725510739,None,1710.1274725510739,None,space,0.31150356377474964,1710.1274725510739,None,0.9365,1710.5682570440695,None,,,,,,,DEC020,001,2022_Nov_11_1440,2-25_cond_decay_EYE-try,2021.2.3,120.12949089970363,
right,1.0,0.75,0,2,0,2,0,3,0,3,0,1,0,10,1,,,,,,,,,,,,,,,1s,1711.626317525981,1712.6279337301385,1712.6107029570267,None,1713.6104705010075,1713.9942758840043,1713.6104705010075,1713.9942758840043,1713.9942758840043,None,1713.9942758840043,None,space,0.3423184060957283,1713.9942758840043,None,0.3812,1714.4677065201104,None,,,,,,,DEC020,001,2022_Nov_11_1440,2-25_cond_decay_EYE-try,2021.2.3,120.12949089970363,
left,0.75,1.0,0,2,0,2,0,3,0,3,0,1,1,11,8,,,,,,,,,,,,,,,1s,1715.5262625999749,1716.527599150082,1716.5193510421086,None,1717.5193540831096,1717.8029089230113,1717.5193540831096,1717.8029089230113,1717.8029089230113,None,1717.8029089230113,None,space,0.3004252740647644,1717.8029089230113,None,0.2823,1718.2342673600651,None,,,,,,,DEC020,001,2022_Nov_11_1440,2-25_cond_decay_EYE-try,2021.2.3,120.12949089970363,
right,1.0,0.75,0,2,0,2,0,3,0,3,0,1,2,12,9,,,,,,,,,,,,,,,1s,1719.2862169081345,1720.286464645993,1720.2773560511414,None,1721.2774408769328,1721.9028826381546,1721.2774408769328,1721.9028826381546,1721.9028826381546,None,1721.9028826381546,None,space,0.2591346388217062,1721.9028826381546,None,0.6251,1722.2928000790998,None,,,,,,,DEC020,001,2022_Nov_11_1440,2-25_cond_decay_EYE-try,2021.2.3,120.12949089970363,
left,0.75,1.0,0,2,0,2,0,3,0,3,0,1,3,13,5,,,,,,,,,,,,,,,1s,1723.3510109649505,1724.3524041101336,1724.3441628280561,None,1725.3442530720495,1726.1112165059894,1725.3442530720495,1726.1112165059894,1726.1112165059894,None,1726.1112165059894,None,space,0.2688478990457952,1726.1112165059894,None,0.7648,1726.5098639989737,None,,,,,,,DEC020,001,2022_Nov_11_1440,2-25_cond_decay_EYE-try,2021.2.3,120.12949089970363,
left,1.0,0.75,1,2,0,2,0,3,0,3,0,1,4,14,4,,,,,,,,,,,,,,,1s,1727.5683600790799,1728.5694368700497,1728.5609598180745,None,1729.561132867122,1730.0859507170971,1729.561132867122,1730.0859507170971,1730.0779690661002,None,1730.0779690661002,None,space,0.36882727406919,1730.0779690661002,None,0.519,1730.5761182410643,None,,,,,,,DEC020,001,2022_Nov_11_1440,2-25_cond_decay_EYE-try,2021.2.3,120.12949089970363,
left,0.75,1.0,0,2,0,2,0,3,0,3,0,1,5,15,6,,,,,,,,,,,,,,,1s,1731.6276586949825,1732.6274300760124,1732.6199381800834,None,1733.619397353148,1734.5778734979685,1733.619397353148,1734.5778734979685,1734.5690896781161,None,1734.5690896781161,None,space,0.27797056501731277,1734.5690896781161,None,0.9513,1734.9766424901318,None,,,,,,,DEC020,001,2022_Nov_11_1440,2-25_cond_decay_EYE-try,2021.2.3,120.12949089970363,
right,1.0,0.75,0,2,0,2,0,3,0,3,0,1,6,16,0,,,,,,,,,,,,,,,1s,1736.0347277331166,1737.0363201969303,1737.0194278750569,None,1738.0193654079922,1738.5277460450307,1738.0193654079922,1738.5277460450307,1738.5277460450307,None,1738.5277460450307,None,space,0.3359277381096035,1738.5277460450307,None,0.5016,1738.9936299340334,None,,,,,,,DEC020,001,2022_Nov_11_1440,2-25_cond_decay_EYE-try,2021.2.3,120.12949089970363,
