attn_cue,left_ob,right_ob,congruent,runs.thisRepN,runs.thisTrialN,runs.thisN,runs.thisIndex,blocks.thisRepN,blocks.thisTrialN,blocks.thisN,blocks.thisIndex,trials.thisRepN,trials.thisTrialN,trials.thisN,trials.thisIndex,welcome.started,welcome.stopped,text_2.started,text_2.stopped,init_key_resp.keys,init_key_resp.rt,init_key_resp.started,init_key_resp.stopped,text_3.started,text_3.stopped,text_4.started,text_4.stopped,text_5.started,text_5.stopped,block_num,texter.started,texter.stopped,cross.started,cross.stopped,left_star.started,left_star.stopped,right_star.started,right_star.stopped,left_2.started,left_2.stopped,right_2.started,right_2.stopped,key_resp.keys,key_resp.started,key_resp.stopped,Rand Tim,text.started,text.stopped,key_resp.rt,end.started,end.stopped,text_6.started,text_6.stopped,text_7.started,text_7.stopped,participant,session,date,expName,psychopyVersion,frameRate,
,,,,,,,,,,,,,,,,137.5262102119159,None,137.5262102119159,None,space,2.973508399911225,137.5262102119159,None,,,,,,,,,,,,,,,,,,,,,,,,,,,,,,,,,DEC004,001,2022_May_18_1431,2-25_cond_decay_EYE-try,2021.2.3,164.97306459079215,
right,1.0,0.75,0,0,0,0,0,0,0,0,0,0,0,0,5,,,,,,,,,140.53225345094688,None,140.53225345094688,None,140.53225345094688,None,1s,145.26034479402006,146.26013515284285,146.25531536503695,None,147.25349748693407,148.13196670799516,147.25349748693407,148.13196670799516,148.13196670799516,149.1319135320373,148.13196670799516,149.1319135320373,None,148.13196670799516,149.1319135320373,0.8791,149.27358061191626,None,,,,,,,,DEC004,001,2022_May_18_1431,2-25_cond_decay_EYE-try,2021.2.3,164.97306459079215,
right,1.0,0.75,0,0,0,0,0,0,0,0,0,0,1,1,8,,,,,,,,,,,,,,,1s,150.3145941158291,151.31467928295024,151.30761660682037,None,152.30780201288871,152.68339328397997,152.30780201288871,152.68339328397997,152.68339328397997,None,152.68339328397997,None,None,152.68339328397997,None,0.3747,153.80485795484856,None,,,,,,,,DEC004,001,2022_May_18_1431,2-25_cond_decay_EYE-try,2021.2.3,164.97306459079215,
right,1.0,0.75,0,0,0,0,0,0,0,0,0,0,2,2,4,,,,,,,,,,,,,,,1s,154.8536767589394,155.85392624582164,155.84693395486102,None,156.8474810088519,157.1137184968684,156.8474810088519,157.1137184968684,157.10792354587466,None,157.10792354587466,None,space,157.10792354587466,None,0.2569,157.44141578790732,None,0.1837714361026883,,,,,,,DEC004,001,2022_May_18_1431,2-25_cond_decay_EYE-try,2021.2.3,164.97306459079215,
left,0.75,1.0,0,0,0,0,0,0,0,0,0,0,3,3,3,,,,,,,,,,,,,,,1s,158.4844275729265,159.48321499489248,159.47935676481575,None,160.47770147793926,160.99323510588147,160.47770147793926,160.99323510588147,160.99323510588147,None,160.99323510588147,None,space,160.99323510588147,None,0.516,161.35653267381713,None,0.2264372210483998,,,,,,,DEC004,001,2022_May_18_1431,2-25_cond_decay_EYE-try,2021.2.3,164.97306459079215,
left,0.75,1.0,0,0,0,0,0,0,0,0,0,0,4,4,7,,,,,,,,,,,,,,,1s,162.405793631915,163.40466507989913,163.3986222220119,None,164.39856335194781,164.9447630830109,164.39856335194781,164.9447630830109,164.9447630830109,None,164.9447630830109,None,space,164.9447630830109,None,0.5408,165.28541624592617,None,0.2109246370382607,,,,,,,DEC004,001,2022_May_18_1431,2-25_cond_decay_EYE-try,2021.2.3,164.97306459079215,
right,0.75,1.0,1,0,0,0,0,0,0,0,0,0,5,5,2,,,,,,,,,,,,,,,1s,166.3447919599712,167.34436481189914,167.3325983718969,None,168.33262554183602,168.8776942109689,168.33262554183602,168.8776942109689,168.8776942109689,None,168.8776942109689,None,space,168.8776942109689,None,0.5445,169.27333837398328,None,0.26198105490766466,,,,,,,DEC004,001,2022_May_18_1431,2-25_cond_decay_EYE-try,2021.2.3,164.97306459079215,
left,0.75,1.0,0,0,0,0,0,0,0,0,0,0,6,6,6,,,,,,,,,,,,,,,1s,170.3262538430281,171.32653225283138,171.31357721891254,None,172.3135469048284,172.91946175997145,172.3135469048284,172.91946175997145,172.91946175997145,None,172.91946175997145,None,space,172.91946175997145,None,0.6016,173.3337445729412,None,0.28421384608373046,,,,,,,DEC004,001,2022_May_18_1431,2-25_cond_decay_EYE-try,2021.2.3,164.97306459079215,
right,1.0,0.75,0,0,0,0,0,0,0,0,0,0,7,7,9,,,,,,,,,,,,,,,1s,174.3925932929851,175.39212430082262,175.38692356389947,None,176.3861821058672,176.8292285669595,176.3861821058672,176.8292285669595,176.82325973990373,None,176.82325973990373,None,space,176.82325973990373,None,0.434,177.30764735396951,None,0.34841250511817634,,,,,,,DEC004,001,2022_May_18_1431,2-25_cond_decay_EYE-try,2021.2.3,164.97306459079215,
left,1.0,0.75,1,0,0,0,0,0,0,0,0,0,8,8,0,,,,,,,,,,,,,,,1s,178.36270611081272,179.36284806393087,179.34974318393506,None,180.35035273898393,181.0543932018336,180.35035273898393,181.0543932018336,181.0482944729738,None,181.0482944729738,None,space,181.0482944729738,None,0.6981,181.39971340983175,None,0.21938224509358406,,,,,,,DEC004,001,2022_May_18_1431,2-25_cond_decay_EYE-try,2021.2.3,164.97306459079215,
left,0.75,1.0,0,0,0,0,0,0,0,0,0,0,9,9,1,,,,,,,,,,,,,,,1s,182.45345190097578,183.452639675932,183.44664999982342,None,184.44655583403073,184.82888224581257,184.44655583403073,184.82888224581257,184.82276172190905,None,184.82276172190905,None,space,184.82276172190905,None,0.3728,185.35810497403145,None,0.40490988083183765,,,,,,,DEC004,001,2022_May_18_1431,2-25_cond_decay_EYE-try,2021.2.3,164.97306459079215,
right,1.0,0.75,0,0,0,0,0,0,0,0,0,1,0,10,8,,,,,,,,,,,,,,,1s,186.4163462028373,187.41632431885228,187.41019793692976,None,188.41093777888454,188.71323796990328,188.41093777888454,188.71323796990328,188.71323796990328,None,188.71323796990328,None,space,188.71323796990328,None,0.3027,189.1570617579855,None,0.31443499797023833,,,,,,,DEC004,001,2022_May_18_1431,2-25_cond_decay_EYE-try,2021.2.3,164.97306459079215,
left,0.75,1.0,0,0,0,0,0,0,0,0,0,1,1,11,1,,,,,,,,,,,,,,,1s,190.21648906497285,191.2166856629774,191.2110157420393,None,192.2105582258664,192.73231100896373,192.2105582258664,192.73231100896373,192.73231100896373,None,192.73231100896373,None,space,192.73231100896373,None,0.5205,193.13209485192783,None,0.26337470090948045,,,,,,,DEC004,001,2022_May_18_1431,2-25_cond_decay_EYE-try,2021.2.3,164.97306459079215,
left,0.75,1.0,0,0,0,0,0,0,0,0,0,1,2,12,6,,,,,,,,,,,,,,,1s,194.186572851846,195.18647535401396,195.17458654893562,None,196.17437595897354,196.7736017589923,196.17437595897354,196.7736017589923,196.7736017589923,None,196.7736017589923,None,space,196.7736017589923,None,0.5994,197.13335919589736,None,0.23008018406108022,,,,,,,DEC004,001,2022_May_18_1431,2-25_cond_decay_EYE-try,2021.2.3,164.97306459079215,
left,1.0,0.75,1,0,0,0,0,0,0,0,0,1,3,13,0,,,,,,,,,,,,,,,1s,198.18678512983024,199.18622707901523,199.17985615390353,None,200.18005259684287,200.84187375591137,200.18005259684287,200.84187375591137,200.83582529891282,None,200.83582529891282,None,space,200.83582529891282,None,0.6583,201.1982572588604,None,0.22385120415128767,,,,,,,DEC004,001,2022_May_18_1431,2-25_cond_decay_EYE-try,2021.2.3,164.97306459079215,
right,1.0,0.75,0,0,0,0,0,0,0,0,0,1,4,14,9,,,,,,,,,,,,,,,1s,202.2536147199571,203.2592871929519,203.24041318288073,None,204.24051073589362,205.0526709558908,204.24051073589362,205.0526709558908,205.0526709558908,None,205.0526709558908,None,space,205.0526709558908,None,0.8095,205.3329617988784,None,0.15100523200817406,,,,,,,DEC004,001,2022_May_18_1431,2-25_cond_decay_EYE-try,2021.2.3,164.97306459079215,
left,0.75,1.0,0,0,0,0,0,0,0,0,0,1,5,15,7,,,,,,,,,,,,,,,1s,206.39262888790108,207.39287202898413,207.37967870687135,None,208.38030842598528,208.549287694972,208.38030842598528,208.549287694972,208.549287694972,None,208.549287694972,None,space,208.549287694972,None,0.1651,209.00418409495614,None,0.3263841599691659,,,,,,,DEC004,001,2022_May_18_1431,2-25_cond_decay_EYE-try,2021.2.3,164.97306459079215,
right,0.75,1.0,1,0,0,0,0,0,0,0,0,1,6,16,2,,,,,,,,,,,,,,,1s,210.06488398998044,211.06484580296092,211.05882838601246,None,212.05893112393096,212.8483799539972,212.05893112393096,212.8483799539972,212.84235662803985,None,212.84235662803985,None,space,212.84235662803985,None,0.784,213.19826819282025,None,0.2173204179853201,,,,,,,DEC004,001,2022_May_18_1431,2-25_cond_decay_EYE-try,2021.2.3,164.97306459079215,
right,1.0,0.75,0,0,0,0,0,0,0,0,0,1,7,17,5,,,,,,,,,,,,,,,1s,214.2592550800182,215.25827870494686,215.24678809382021,None,216.24669526494108,216.8825127838645,216.24669526494108,216.8825127838645,216.8825127838645,None,216.8825127838645,None,space,216.8825127838645,None,0.6363,217.2786577329971,None,0.2651574080809951,,,,,,,DEC004,001,2022_May_18_1431,2-25_cond_decay_EYE-try,2021.2.3,164.97306459079215,
right,1.0,0.75,0,0,0,0,0,0,0,0,0,1,8,18,4,,,,,,,,,,,,,,,1s,218.331404754892,219.33111268887296,219.3250925638713,None,220.3251159118954,220.88955150498077,220.3251159118954,220.88955150498077,220.88955150498077,None,220.88955150498077,None,space,220.88955150498077,None,0.5629,221.25278928200714,None,0.2261121110059321,,,,,,,DEC004,001,2022_May_18_1431,2-25_cond_decay_EYE-try,2021.2.3,164.97306459079215,
left,0.75,1.0,0,0,0,0,0,0,0,0,0,1,9,19,3,,,,,,,,,,,,,,,1s,222.3127488018945,223.31301507889293,223.30710208485834,None,224.30096198082902,224.62177572585642,224.30096198082902,224.62177572585642,224.62177572585642,None,224.62177572585642,None,space,224.62177572585642,None,0.3182,225.00987450988032,None,0.25391402398236096,,,,,,,DEC004,001,2022_May_18_1431,2-25_cond_decay_EYE-try,2021.2.3,164.97306459079215,
,,,,0,0,0,0,0,0,0,0,,,,,,,,,,,,,,,,,,,,,,,,,,,,,,,,,,,,,,,,,,,,,DEC004,001,2022_May_18_1431,2-25_cond_decay_EYE-try,2021.2.3,164.97306459079215,
left,0.75,1.0,0,0,0,0,0,1,0,1,0,0,0,0,0,,,,,,,,,225.90068172081374,None,225.90068172081374,None,225.90068172081374,None,10s,230.44009546982124,231.44096213090234,231.43613659893163,None,232.43490066891536,238.84056438785046,232.43490066891536,238.84056438785046,238.83463142602704,None,238.83463142602704,None,space,238.83463142602704,None,6.3961,239.29442600696348,None,0.3210386489517987,,,,,,,DEC004,001,2022_May_18_1431,2-25_cond_decay_EYE-try,2021.2.3,164.97306459079215,
right,0.75,1.0,1,0,0,0,0,1,0,1,0,0,1,1,9,,,,,,,,,,,,,,,10s,240.34940852294676,241.34892076300457,241.34317668899894,None,242.34373910492286,247.4942990290001,242.34373910492286,247.4942990290001,247.4942990290001,None,247.4942990290001,None,space,247.4942990290001,None,5.149,248.07068122783676,None,0.4373690520878881,,,,,,,DEC004,001,2022_May_18_1431,2-25_cond_decay_EYE-try,2021.2.3,164.97306459079215,
left,0.75,1.0,0,0,0,0,0,1,0,1,0,0,2,2,8,,,,,,,,,,,,,,,10s,249.12481930386275,250.1247094569262,250.11900272383355,None,251.1129126229789,256.3009503658395,251.1129126229789,256.3009503658395,256.3009503658395,None,256.3009503658395,None,space,256.3009503658395,None,5.1871,256.77495321491733,None,0.3427372928708792,,,,,,,DEC004,001,2022_May_18_1431,2-25_cond_decay_EYE-try,2021.2.3,164.97306459079215,
left,0.75,1.0,0,0,0,0,0,1,0,1,0,0,3,3,6,,,,,,,,,,,,,,,10s,257.829014607938,258.83370944997296,258.8215339498129,None,259.82217227783985,263.2281850320287,259.82217227783985,263.2281850320287,263.2281850320287,None,263.2281850320287,None,space,263.2281850320287,None,3.4009,263.67065082187764,None,0.30349238589406013,,,,,,,DEC004,001,2022_May_18_1431,2-25_cond_decay_EYE-try,2021.2.3,164.97306459079215,
right,1.0,0.75,0,0,0,0,0,1,0,1,0,0,4,4,3,,,,,,,,,,,,,,,10s,264.7182562488597,265.7190052238293,265.7072312599048,None,266.7062676360365,274.7182479868643,266.7062676360365,274.7182479868643,274.7182479868643,None,274.7182479868643,None,space,274.7182479868643,None,8.0119,275.1326457399409,None,0.28542080195620656,,,,,,,DEC004,001,2022_May_18_1431,2-25_cond_decay_EYE-try,2021.2.3,164.97306459079215,
left,0.75,1.0,0,0,0,0,0,1,0,1,0,0,5,5,7,,,,,,,,,,,,,,,10s,276.1910711938981,277.1913661309518,277.1853513249662,None,278.18533784803003,287.2047052460257,278.18533784803003,287.2047052460257,287.19893596391194,None,287.19893596391194,None,space,287.19893596391194,None,9.0133,287.6157362188678,None,0.2847619401291013,,,,,,,DEC004,001,2022_May_18_1431,2-25_cond_decay_EYE-try,2021.2.3,164.97306459079215,
right,1.0,0.75,0,0,0,0,0,1,0,1,0,0,6,6,1,,,,,,,,,,,,,,,10s,288.67023637495004,289.67021127184853,289.65727920201607,None,290.6581282520201,297.1668980498798,290.6581282520201,297.1668980498798,297.1668980498798,None,297.1668980498798,None,space,297.1668980498798,None,6.5101,297.6159128078725,None,0.3167860221583396,,,,,,,DEC004,001,2022_May_18_1431,2-25_cond_decay_EYE-try,2021.2.3,164.97306459079215,
right,1.0,0.75,0,0,0,0,0,1,0,1,0,0,7,7,4,,,,,,,,,,,,,,,10s,298.66416216501966,299.66423619701527,299.65798420784995,None,300.65767809189856,301.27558425604366,300.65767809189856,301.27558425604366,301.27558425604366,None,301.27558425604366,None,space,301.27558425604366,None,0.618,301.9488640560303,None,0.5360964320134372,,,,,,,DEC004,001,2022_May_18_1431,2-25_cond_decay_EYE-try,2021.2.3,164.97306459079215,
left,0.75,1.0,0,0,0,0,0,1,0,1,0,0,8,8,2,,,,,,,,,,,,,,,10s,303.0032469900325,304.0030039148405,303.9970669609029,None,304.99694465403445,314.41523102484643,304.99694465403445,314.41523102484643,314.41523102484643,None,314.41523102484643,None,space,314.41523102484643,None,9.4185,314.84095860202797,None,0.29246473289094865,,,,,,,DEC004,001,2022_May_18_1431,2-25_cond_decay_EYE-try,2021.2.3,164.97306459079215,
right,1.0,0.75,0,0,0,0,0,1,0,1,0,0,9,9,5,,,,,,,,,,,,,,,10s,315.8994981208816,316.8993086130358,316.89423934486695,None,317.893576847855,318.5967875130009,317.893576847855,318.5967875130009,318.5967875130009,None,318.5967875130009,None,space,318.5967875130009,None,0.7016,319.0336778308265,None,0.30290347803384066,,,,,,,DEC004,001,2022_May_18_1431,2-25_cond_decay_EYE-try,2021.2.3,164.97306459079215,
left,1.0,0.75,1,0,0,0,0,1,0,1,0,1,0,10,0,,,,,,,,,,,,,,,10s,320.08811147883534,321.08777420502156,321.07507200399414,None,322.0758928118739,328.9366188128479,322.0758928118739,328.9366188128479,328.9366188128479,None,328.9366188128479,None,space,328.9366188128479,None,6.8596,329.4515868269373,None,0.37907356792129576,,,,,,,DEC004,001,2022_May_18_1431,2-25_cond_decay_EYE-try,2021.2.3,164.97306459079215,
left,0.75,1.0,0,0,0,0,0,1,0,1,0,1,1,11,7,,,,,,,,,,,,,,,10s,330.4937305219937,331.4941034819931,331.4891881549265,None,332.48734671482816,338.3000185659621,332.48734671482816,338.3000185659621,338.29391192784533,None,338.29391192784533,None,space,338.29391192784533,None,5.8029,338.70613651699387,None,0.2777878048364073,,,,,,,DEC004,001,2022_May_18_1431,2-25_cond_decay_EYE-try,2021.2.3,164.97306459079215,
right,1.0,0.75,0,0,0,0,0,1,0,1,0,1,2,12,1,,,,,,,,,,,,,,,10s,339.7607252879534,340.7605286629405,340.7545606158674,None,341.74842080590315,347.41455996292643,341.74842080590315,347.41455996292643,347.41455996292643,None,347.41455996292643,None,space,347.41455996292643,None,5.6631,347.82069376902655,None,0.27713057096116245,,,,,,,DEC004,001,2022_May_18_1431,2-25_cond_decay_EYE-try,2021.2.3,164.97306459079215,
left,0.75,1.0,0,0,0,0,0,1,0,1,0,1,3,13,8,,,,,,,,,,,,,,,10s,348.881387519883,349.8813480839599,349.87534325988963,None,350.8751321178861,360.03264765487984,350.8751321178861,360.03264765487984,360.03264765487984,None,360.03264765487984,None,space,360.03264765487984,None,9.1578,360.53712153900415,None,0.37105088494718075,,,,,,,DEC004,001,2022_May_18_1431,2-25_cond_decay_EYE-try,2021.2.3,164.97306459079215,
left,0.75,1.0,0,0,0,0,0,1,0,1,0,1,4,14,2,,,,,,,,,,,,,,,10s,361.5911590438336,362.5958551398944,362.5836448939517,None,363.5844168618787,365.4266652408987,363.5844168618787,365.4266652408987,365.4266652408987,None,365.4266652408987,None,space,365.4266652408987,None,1.8425,365.90025404887274,None,0.3450413078535348,,,,,,,DEC004,001,2022_May_18_1431,2-25_cond_decay_EYE-try,2021.2.3,164.97306459079215,
left,0.75,1.0,0,0,0,0,0,1,0,1,0,1,5,15,6,,,,,,,,,,,,,,,10s,366.94891522382386,367.95362026500516,367.941142387921,None,368.94179408904165,375.03853059303947,368.94179408904165,375.03853059303947,375.03853059303947,None,375.03853059303947,None,space,375.03853059303947,None,6.0944,375.5113904320169,None,0.3411652031354606,,,,,,,DEC004,001,2022_May_18_1431,2-25_cond_decay_EYE-try,2021.2.3,164.97306459079215,
right,1.0,0.75,0,0,0,0,0,1,0,1,0,1,6,16,3,,,,,,,,,,,,,,,10s,376.56591616990045,377.56601294199936,377.5599667108618,None,378.55960058188066,386.2881344270427,378.55960058188066,386.2881344270427,386.2823233718518,None,386.2823233718518,None,space,386.2823233718518,None,7.724,386.70542986900546,None,0.2893685989547521,,,,,,,DEC004,001,2022_May_18_1431,2-25_cond_decay_EYE-try,2021.2.3,164.97306459079215,
right,1.0,0.75,0,0,0,0,0,1,0,1,0,1,7,17,4,,,,,,,,,,,,,,,10s,387.7536585708149,388.75339173385873,388.7418942139484,None,389.74123477586545,391.3415802079253,389.74123477586545,391.3415802079253,391.3415802079253,None,391.3415802079253,None,space,391.3415802079253,None,1.5975,391.8259492989164,None,0.3501314069144428,,,,,,,DEC004,001,2022_May_18_1431,2-25_cond_decay_EYE-try,2021.2.3,164.97306459079215,
right,1.0,0.75,0,0,0,0,0,1,0,1,0,1,8,18,5,,,,,,,,,,,,,,,10s,392.8683815768454,393.86892163497396,393.8626787860412,None,394.8622647768352,403.874500653008,394.8622647768352,403.874500653008,403.8686768070329,None,403.8686768070329,None,space,403.8686768070329,None,9.0038,404.3290866529569,None,0.327019764110446,,,,,,,DEC004,001,2022_May_18_1431,2-25_cond_decay_EYE-try,2021.2.3,164.97306459079215,
right,0.75,1.0,1,0,0,0,0,1,0,1,0,1,9,19,9,,,,,,,,,,,,,,,10s,405.3711188668385,406.3716984668281,406.3657048989553,None,407.3655803988222,413.1172186729964,407.3655803988222,413.1172186729964,413.1172186729964,None,413.1172186729964,None,space,413.1172186729964,None,5.7506,413.59679232002236,None,0.350480813998729,,,,,,,DEC004,001,2022_May_18_1431,2-25_cond_decay_EYE-try,2021.2.3,164.97306459079215,
,,,,0,0,0,0,1,0,1,0,,,,,,,,,,,,,,,,,,,,,,,,,,,,,,,,,,,,,,,,,,,,,DEC004,001,2022_May_18_1431,2-25_cond_decay_EYE-try,2021.2.3,164.97306459079215,
left,1.0,0.75,1,0,0,0,0,2,0,2,0,0,0,0,8,,,,,,,,,414.4930208809674,None,414.4930208809674,None,414.4930208809674,None,3s,415.92319168988615,416.9226269829087,416.91661341581494,None,417.9106035709847,420.0434821660165,417.9106035709847,420.0434821660165,420.0434821660165,None,420.0434821660165,None,space,420.0434821660165,None,2.1299,420.47395398584194,None,0.2962171060498804,,,,,,,DEC004,001,2022_May_18_1431,2-25_cond_decay_EYE-try,2021.2.3,164.97306459079215,
right,1.0,0.75,0,0,0,0,0,2,0,2,0,0,1,1,1,,,,,,,,,,,,,,,3s,421.52917840797454,422.5284107408952,422.522370622959,None,423.5224406039342,425.02081482997164,423.5224406039342,425.02081482997164,425.01480172900483,None,425.01480172900483,None,space,425.01480172900483,None,1.4935,425.39134380198084,None,0.24490209808573127,,,,,,,DEC004,001,2022_May_18_1431,2-25_cond_decay_EYE-try,2021.2.3,164.97306459079215,
right,1.0,0.75,0,0,0,0,0,2,0,2,0,0,2,2,4,,,,,,,,,,,,,,,3s,426.43806098192,427.43736215890385,427.4315464908723,None,428.43223269004375,430.1222487469204,428.43223269004375,430.1222487469204,430.1222487469204,None,430.1222487469204,None,space,430.1222487469204,None,1.6905,430.51108351093717,None,0.2574604169931263,,,,,,,DEC004,001,2022_May_18_1431,2-25_cond_decay_EYE-try,2021.2.3,164.97306459079215,
left,0.75,1.0,0,0,0,0,0,2,0,2,0,0,3,3,7,,,,,,,,,,,,,,,3s,431.5713125260081,432.57127021602355,432.56526451697573,None,433.56500657997094,434.37684273999184,433.56500657997094,434.37684273999184,434.37684273999184,None,434.37684273999184,None,space,434.37684273999184,None,0.8123,434.8032383599784,None,0.2908439999446273,,,,,,,DEC004,001,2022_May_18_1431,2-25_cond_decay_EYE-try,2021.2.3,164.97306459079215,
left,0.75,1.0,0,0,0,0,0,2,0,2,0,0,4,4,9,,,,,,,,,,,,,,,3s,435.85719875688665,436.8616501339711,436.8555803198833,None,437.8560889440123,440.4675785698928,437.8560889440123,440.4675785698928,440.4675785698928,None,440.4675785698928,None,space,440.4675785698928,None,2.6116,440.91674004192464,None,0.31212173704989254,,,,,,,DEC004,001,2022_May_18_1431,2-25_cond_decay_EYE-try,2021.2.3,164.97306459079215,
left,1.0,0.75,1,0,0,0,0,2,0,2,0,0,5,5,0,,,,,,,,,,,,,,,3s,441.9712271830067,442.9713456039317,442.9590528230183,None,443.9589126429055,446.73408801387995,443.9589126429055,446.73408801387995,446.73408801387995,None,446.73408801387995,None,space,446.73408801387995,None,2.7715,447.1119553348981,None,0.24562467401847243,,,,,,,DEC004,001,2022_May_18_1431,2-25_cond_decay_EYE-try,2021.2.3,164.97306459079215,
left,0.75,1.0,0,0,0,0,0,2,0,2,0,0,6,6,6,,,,,,,,,,,,,,,3s,448.1644513870124,449.16530548688024,449.1590722068213,None,450.152430052869,452.49192090984434,450.152430052869,452.49192090984434,452.49192090984434,None,452.49192090984434,None,space,452.49192090984434,None,2.3372,452.85693690390326,None,0.23177778092212975,,,,,,,DEC004,001,2022_May_18_1431,2-25_cond_decay_EYE-try,2021.2.3,164.97306459079215,
left,0.75,1.0,0,0,0,0,0,2,0,2,0,0,7,7,2,,,,,,,,,,,,,,,3s,453.91055480693467,454.9099396870006,454.9039414038416,None,455.90488916798495,458.5887720838655,455.90488916798495,458.5887720838655,458.58278411696665,None,458.58278411696665,None,space,458.58278411696665,None,2.6734,459.04316371586174,None,0.32491270499303937,,,,,,,DEC004,001,2022_May_18_1431,2-25_cond_decay_EYE-try,2021.2.3,164.97306459079215,
right,1.0,0.75,0,0,0,0,0,2,0,2,0,0,8,8,5,,,,,,,,,,,,,,,3s,460.09198188595474,461.09250410692766,461.0795874178875,None,462.0795973560307,464.3643348668702,462.0795973560307,464.3643348668702,464.3702461980283,None,464.3702461980283,None,space,464.3702461980283,None,2.2868,464.7405414439272,None,0.23346103611402214,,,,,,,DEC004,001,2022_May_18_1431,2-25_cond_decay_EYE-try,2021.2.3,164.97306459079215,
right,0.75,1.0,1,0,0,0,0,2,0,2,0,0,9,9,3,,,,,,,,,,,,,,,3s,465.79537211102434,466.7944562458433,466.7885337709449,None,467.78875864692964,470.18846227088943,467.78875864692964,470.18846227088943,470.18846227088943,None,470.18846227088943,None,space,470.18846227088943,None,2.3978,470.57098466996104,None,0.24725827109068632,,,,,,,DEC004,001,2022_May_18_1431,2-25_cond_decay_EYE-try,2021.2.3,164.97306459079215,
left,0.75,1.0,0,0,0,0,0,2,0,2,0,1,0,10,9,,,,,,,,,,,,,,,3s,471.62560344394296,472.62571474001743,472.6126025838312,None,473.61314016999677,476.40083620883524,473.61314016999677,476.40083620883524,476.40083620883524,None,476.40083620883524,None,space,476.40083620883524,None,2.7837,476.82656623399816,None,0.29088391503319144,,,,,,,DEC004,001,2022_May_18_1431,2-25_cond_decay_EYE-try,2021.2.3,164.97306459079215,
left,0.75,1.0,0,0,0,0,0,2,0,2,0,1,1,11,7,,,,,,,,,,,,,,,3s,477.88038460793905,478.879644830944,478.8737996129785,None,479.8732318528928,482.5095664670225,479.8732318528928,482.5095664670225,482.5095664670225,None,482.5095664670225,None,space,482.5095664670225,None,2.6333,482.90411532181315,None,0.26216433313675225,,,,,,,DEC004,001,2022_May_18_1431,2-25_cond_decay_EYE-try,2021.2.3,164.97306459079215,
right,0.75,1.0,1,0,0,0,0,2,0,2,0,1,2,12,3,,,,,,,,,,,,,,,3s,483.9584081508219,484.9586383779533,484.94562242599204,None,485.9460128399078,486.97068363893777,485.9460128399078,486.97068363893777,486.97068363893777,None,486.97068363893777,None,space,486.97068363893777,None,1.0252,487.4434282418806,None,0.33702395390719175,,,,,,,DEC004,001,2022_May_18_1431,2-25_cond_decay_EYE-try,2021.2.3,164.97306459079215,
left,0.75,1.0,0,0,0,0,0,2,0,2,0,1,3,13,6,,,,,,,,,,,,,,,3s,488.49173456290737,489.4920073458925,489.47998103895225,None,490.47899801889434,493.2071615268942,490.47899801889434,493.2071615268942,493.2071615268942,None,493.2071615268942,None,space,493.2071615268942,None,2.7275,493.65509820287116,None,0.30855206097476184,,,,,,,DEC004,001,2022_May_18_1431,2-25_cond_decay_EYE-try,2021.2.3,164.97306459079215,
right,1.0,0.75,0,0,0,0,0,2,0,2,0,1,4,14,5,,,,,,,,,,,,,,,3s,494.7107031168416,495.71601596986875,495.70313346688636,None,496.703913011821,497.97654740302823,496.703913011821,497.97654740302823,497.97654740302823,None,497.97654740302823,None,space,497.97654740302823,None,1.2714,498.46059609088115,None,0.3471587859094143,,,,,,,DEC004,001,2022_May_18_1431,2-25_cond_decay_EYE-try,2021.2.3,164.97306459079215,
right,1.0,0.75,0,0,0,0,0,2,0,2,0,1,5,15,4,,,,,,,,,,,,,,,3s,499.50935945590027,500.5093232479412,500.49785298202187,None,501.5029971979093,504.4684892180376,501.5029971979093,504.4684892180376,504.46245330385864,None,504.46245330385864,None,space,504.46245330385864,None,2.9606,504.848471629899,None,0.2532586718443781,,,,,,,DEC004,001,2022_May_18_1431,2-25_cond_decay_EYE-try,2021.2.3,164.97306459079215,
right,1.0,0.75,0,0,0,0,0,2,0,2,0,1,6,16,1,,,,,,,,,,,,,,,3s,505.89796524797566,506.8978607158642,506.8916096938774,None,507.89195723994635,509.709239047952,507.89195723994635,509.709239047952,509.709239047952,None,509.709239047952,None,space,509.709239047952,None,1.8165,510.1339499959722,None,0.2865401040762663,,,,,,,DEC004,001,2022_May_18_1431,2-25_cond_decay_EYE-try,2021.2.3,164.97306459079215,
left,1.0,0.75,1,0,0,0,0,2,0,2,0,1,7,17,0,,,,,,,,,,,,,,,3s,511.1941828678828,512.1943654208444,512.1824640028644,None,513.1820120448247,515.4017194949556,513.1820120448247,515.4017194949556,515.3954731919803,None,515.3954731919803,None,space,515.3954731919803,None,2.2136,515.8062447640114,None,0.2722355858422816,,,,,,,DEC004,001,2022_May_18_1431,2-25_cond_decay_EYE-try,2021.2.3,164.97306459079215,
right,1.0,0.75,0,0,0,0,0,2,0,2,0,1,8,18,8,,,,,,,,,,,,,,,3s,516.8674451168627,517.8671106479596,517.8547521468718,None,518.8549229779746,521.6370065028314,518.8549229779746,521.6370065028314,521.6370065028314,None,521.6370065028314,None,space,521.6370065028314,None,2.7792,522.0672456850298,None,0.29471321613527834,,,,,,,DEC004,001,2022_May_18_1431,2-25_cond_decay_EYE-try,2021.2.3,164.97306459079215,
left,0.75,1.0,0,0,0,0,0,2,0,2,0,1,9,19,2,,,,,,,,,,,,,,,3s,523.1227688859217,524.1274381338153,524.1152117149904,None,525.1148166148923,526.8259863168932,525.1148166148923,526.8259863168932,526.8200441359077,None,526.8200441359077,None,space,526.8200441359077,None,1.7049,527.26160625997,None,0.3036712419707328,,,,,,,DEC004,001,2022_May_18_1431,2-25_cond_decay_EYE-try,2021.2.3,164.97306459079215,
,,,,0,0,0,0,2,0,2,0,,,,,,,,,,,,,,,,,,,,,,,,,,,,,,,,,,,,,,,,,,,,,DEC004,001,2022_May_18_1431,2-25_cond_decay_EYE-try,2021.2.3,164.97306459079215,
left,1.0,0.75,1,0,0,0,0,3,0,3,0,0,0,0,8,,,,,,,,,528.1580623069312,None,528.1580623069312,None,528.1580623069312,None,5s,529.2929371069185,530.2968907088507,530.2853942569345,None,531.2844801449683,531.6077795899473,531.2844801449683,531.6077795899473,531.6077795899473,None,531.6077795899473,None,space,531.6077795899473,None,0.3228,532.1458206740208,None,0.40393342915922403,,,,,,,DEC004,001,2022_May_18_1431,2-25_cond_decay_EYE-try,2021.2.3,164.97306459079215,
right,1.0,0.75,0,0,0,0,0,3,0,3,0,0,1,1,4,,,,,,,,,,,,,,,5s,533.1957552279346,534.2004249158781,534.19441220304,None,535.1945055988617,538.36469840887,535.1945055988617,538.36469840887,538.3587291308213,None,538.3587291308213,None,space,538.3587291308213,None,3.1643,538.7585661618505,None,0.2689985109027475,,,,,,,DEC004,001,2022_May_18_1431,2-25_cond_decay_EYE-try,2021.2.3,164.97306459079215,
right,1.0,0.75,0,0,0,0,0,3,0,3,0,0,2,2,7,,,,,,,,,,,,,,,5s,539.8121906819288,540.812679472845,540.7997184768319,None,541.800310311839,543.8607795059215,541.800310311839,543.8607795059215,543.8607795059215,None,543.8607795059215,None,space,543.8607795059215,None,2.0612,544.2796412678435,None,0.28693182091228664,,,,,,,DEC004,001,2022_May_18_1431,2-25_cond_decay_EYE-try,2021.2.3,164.97306459079215,
left,1.0,0.75,1,0,0,0,0,3,0,3,0,0,3,3,3,,,,,,,,,,,,,,,5s,545.3389260938857,546.3396050450392,546.3273709130008,None,547.3272205088288,551.4851415769663,547.3272205088288,551.4851415769663,551.4851415769663,None,551.4851415769663,None,space,551.4851415769663,None,4.1568,551.8790219319053,None,0.25456996797584,,,,,,,DEC004,001,2022_May_18_1431,2-25_cond_decay_EYE-try,2021.2.3,164.97306459079215,
left,0.75,1.0,0,0,0,0,0,3,0,3,0,0,4,4,0,,,,,,,,,,,,,,,5s,552.9343580799177,553.9326175749302,553.928853547899,None,554.9275474979077,559.1881171339191,554.9275474979077,559.1881171339191,559.1881171339191,None,559.1881171339191,None,space,559.1881171339191,None,4.2562,559.5934519139118,None,0.2716044799890369,,,,,,,DEC004,001,2022_May_18_1431,2-25_cond_decay_EYE-try,2021.2.3,164.97306459079215,
right,1.0,0.75,0,0,0,0,0,3,0,3,0,0,5,5,2,,,,,,,,,,,,,,,5s,560.6478210990317,561.6480926168151,561.6420663618483,None,562.6355365028139,563.9146525219548,562.6355365028139,563.9146525219548,563.9146525219548,None,563.9146525219548,None,space,563.9146525219548,None,1.2767,564.4122164018918,None,0.3690584031865001,,,,,,,DEC004,001,2022_May_18_1431,2-25_cond_decay_EYE-try,2021.2.3,164.97306459079215,
left,0.75,1.0,0,0,0,0,0,3,0,3,0,0,6,6,9,,,,,,,,,,,,,,,5s,565.4721390849445,566.4724868119229,566.4598752588499,None,567.4604421718977,571.5263581438921,567.4604421718977,571.5263581438921,571.5263581438921,None,571.5263581438921,None,space,571.5263581438921,None,4.0625,572.0373523079325,None,0.3733688360080123,,,,,,,DEC004,001,2022_May_18_1431,2-25_cond_decay_EYE-try,2021.2.3,164.97306459079215,
left,0.75,1.0,0,0,0,0,0,3,0,3,0,0,7,7,6,,,,,,,,,,,,,,,5s,573.0905671219807,574.0904291619081,574.0784137980081,None,575.0780524578877,577.8360139930155,575.0780524578877,577.8360139930155,577.8360139930155,None,577.8360139930155,None,space,577.8360139930155,None,2.7571,578.3028866699897,None,0.32771438197232783,,,,,,,DEC004,001,2022_May_18_1431,2-25_cond_decay_EYE-try,2021.2.3,164.97306459079215,
right,1.0,0.75,0,0,0,0,0,3,0,3,0,0,8,8,1,,,,,,,,,,,,,,,5s,579.351375891827,580.3506484278478,580.3392951318529,None,581.3390729129314,584.0656177678611,581.3390729129314,584.0656177678611,584.0656177678611,None,584.0656177678611,None,space,584.0656177678611,None,2.7233,584.4847533979919,None,0.2820919689256698,,,,,,,DEC004,001,2022_May_18_1431,2-25_cond_decay_EYE-try,2021.2.3,164.97306459079215,
left,0.75,1.0,0,0,0,0,0,3,0,3,0,0,9,9,5,,,,,,,,,,,,,,,5s,585.5448602819815,586.5449161429424,586.5321807200089,None,587.5322168939747,589.6361842169426,587.5322168939747,589.6361842169426,589.6361842169426,None,589.6361842169426,None,space,589.6361842169426,None,2.1041,590.078994535841,None,0.30354269803501666,,,,,,,DEC004,001,2022_May_18_1431,2-25_cond_decay_EYE-try,2021.2.3,164.97306459079215,
right,1.0,0.75,0,0,0,0,0,3,0,3,0,1,0,10,4,,,,,,,,,,,,,,,5s,591.1334860320203,592.1323797658551,592.126648333855,None,593.1270310669206,594.3751785040367,593.1270310669206,594.3751785040367,594.3751785040367,None,594.3751785040367,None,space,594.3751785040367,None,1.2453,594.8600817339029,None,0.34854265581816435,,,,,,,DEC004,001,2022_May_18_1431,2-25_cond_decay_EYE-try,2021.2.3,164.97306459079215,
left,0.75,1.0,0,0,0,0,0,3,0,3,0,1,1,11,5,,,,,,,,,,,,,,,5s,595.9209960128646,596.9208292458206,596.9145028858911,None,597.9144124318846,600.7939535810146,597.9144124318846,600.7939535810146,600.7882266468368,None,600.7882266468368,None,space,600.7882266468368,None,2.8763,601.2171056079678,None,0.29549069283530116,,,,,,,DEC004,001,2022_May_18_1431,2-25_cond_decay_EYE-try,2021.2.3,164.97306459079215,
right,0.75,1.0,1,0,0,0,0,3,0,3,0,1,2,12,8,,,,,,,,,,,,,,,5s,602.2653815359809,603.2654527008999,603.2603109609336,None,604.2598267449066,608.253144094022,604.2598267449066,608.253144094022,608.253144094022,None,608.253144094022,None,space,608.253144094022,None,3.9943,608.6723098559305,None,0.2865867449436337,,,,,,,DEC004,001,2022_May_18_1431,2-25_cond_decay_EYE-try,2021.2.3,164.97306459079215,
right,1.0,0.75,0,0,0,0,0,3,0,3,0,1,3,13,7,,,,,,,,,,,,,,,5s,609.726708192844,610.7268241348211,610.7141172338743,None,611.7147693538573,616.150780991884,611.7147693538573,616.150780991884,616.150780991884,None,616.150780991884,None,space,616.150780991884,None,4.4337,616.5622168739792,None,0.27693493315018713,,,,,,,DEC004,001,2022_May_18_1431,2-25_cond_decay_EYE-try,2021.2.3,164.97306459079215,
left,0.75,1.0,0,0,0,0,0,3,0,3,0,1,4,14,0,,,,,,,,,,,,,,,5s,617.6185095948167,618.6236905560363,618.6113137518987,None,619.6114688869566,620.4176913588308,619.6114688869566,620.4176913588308,620.4176913588308,None,620.4176913588308,None,space,620.4176913588308,None,0.8062,620.9935346799903,None,0.44203960592858493,,,,,,,DEC004,001,2022_May_18_1431,2-25_cond_decay_EYE-try,2021.2.3,164.97306459079215,
left,1.0,0.75,1,0,0,0,0,3,0,3,0,1,5,15,3,,,,,,,,,,,,,,,5s,622.0477502439171,623.0476809039246,623.0356669118628,None,624.0356856668368,624.5440805188846,624.0356856668368,624.5440805188846,624.5440805188846,None,624.5440805188846,None,space,624.5440805188846,None,0.5086,625.0966599918902,None,0.4196595111861825,,,,,,,DEC004,001,2022_May_18_1431,2-25_cond_decay_EYE-try,2021.2.3,164.97306459079215,
right,1.0,0.75,0,0,0,0,0,3,0,3,0,1,6,16,1,,,,,,,,,,,,,,,5s,626.1516907049809,627.1563328618649,627.1500969128683,None,628.144422280835,631.4775858789217,628.144422280835,631.4775858789217,631.4775858789217,None,631.4775858789217,None,space,631.4775858789217,None,3.3286,631.9073947130237,None,0.2941392508801073,,,,,,,DEC004,001,2022_May_18_1431,2-25_cond_decay_EYE-try,2021.2.3,164.97306459079215,
left,0.75,1.0,0,0,0,0,0,3,0,3,0,1,7,17,6,,,,,,,,,,,,,,,5s,632.968264844967,633.9684535749257,633.9567469698377,None,634.9621380909812,636.157434739871,634.9621380909812,636.157434739871,636.1518299418967,None,636.1518299418967,None,space,636.1518299418967,None,1.1914,636.5703058280051,None,0.28389885905198753,,,,,,,DEC004,001,2022_May_18_1431,2-25_cond_decay_EYE-try,2021.2.3,164.97306459079215,
right,1.0,0.75,0,0,0,0,0,3,0,3,0,1,8,18,2,,,,,,,,,,,,,,,5s,637.6290251759347,638.6284765449818,638.622581937816,None,639.6224007690325,642.472604915034,639.6224007690325,642.472604915034,642.4670334060211,None,642.4670334060211,None,space,642.4670334060211,None,2.8442,642.8487452259287,None,0.24869697005487978,,,,,,,DEC004,001,2022_May_18_1431,2-25_cond_decay_EYE-try,2021.2.3,164.97306459079215,
left,0.75,1.0,0,0,0,0,0,3,0,3,0,1,9,19,9,,,,,,,,,,,,,,,5s,643.9077269989066,644.9073322729673,644.9017026238143,None,645.9017152718734,649.1563519528136,645.9017152718734,649.1563519528136,649.1563519528136,None,649.1563519528136,None,space,649.1563519528136,None,3.2554,649.575090904953,None,0.27937922184355557,,,,,,,DEC004,001,2022_May_18_1431,2-25_cond_decay_EYE-try,2021.2.3,164.97306459079215,
,,,,0,0,0,0,3,0,3,0,,,,,,,,,,,,,,,,,,,,,,,,,,,,,,,,,,,,,,,,,,,,,DEC004,001,2022_May_18_1431,2-25_cond_decay_EYE-try,2021.2.3,164.97306459079215,
,,,,0,0,0,0,,,,,,,,,,,,,,,,,,,,,,,,,,,,,,,,,,,,,,,,,,,650.4708973739762,None,650.4708973739762,None,650.4708973739762,None,DEC004,001,2022_May_18_1431,2-25_cond_decay_EYE-try,2021.2.3,164.97306459079215,
right,1.0,0.75,0,1,0,1,0,0,0,0,0,0,0,0,4,,,,,,,,,655.4714917310048,None,655.4714917310048,None,655.4714917310048,None,5s,657.6833101999946,658.6837879009545,658.677637598943,None,659.6771014858969,661.0117388200015,659.6771014858969,661.0117388200015,661.0056139000226,None,661.0056139000226,None,space,661.0056139000226,None,1.3302,661.4470050649252,None,0.3021175339818001,,,,,,,DEC004,001,2022_May_18_1431,2-25_cond_decay_EYE-try,2021.2.3,164.97306459079215,
right,1.0,0.75,0,1,0,1,0,0,0,0,0,0,1,1,9,,,,,,,,,,,,,,,5s,662.5020278389566,663.5017759669572,663.4956356389448,None,664.4959340118803,667.7269035000354,664.4959340118803,667.7269035000354,667.7209198679775,None,667.7209198679775,None,space,667.7209198679775,None,3.2248,668.1806858938653,None,0.3228248390369117,,,,,,,DEC004,001,2022_May_18_1431,2-25_cond_decay_EYE-try,2021.2.3,164.97306459079215,
right,1.0,0.75,0,1,0,1,0,0,0,0,0,0,2,2,0,,,,,,,,,,,,,,,5s,669.2288593589328,670.2280707820319,670.2165085298475,None,671.2224710739683,673.0476655678358,671.2224710739683,673.0476655678358,673.0418623660225,None,673.0418623660225,None,space,673.0418623660225,None,1.8199,673.4522440929431,None,0.2738751908764243,,,,,,,DEC004,001,2022_May_18_1431,2-25_cond_decay_EYE-try,2021.2.3,164.97306459079215,
left,0.75,1.0,0,1,0,1,0,0,0,0,0,0,3,3,5,,,,,,,,,,,,,,,5s,674.5128334488254,675.5137696380261,675.5006965608336,None,676.5013719799463,680.8097581409384,676.5013719799463,680.8097581409384,680.8040434429422,None,680.8040434429422,None,space,680.8040434429422,None,4.2983,681.2289869629312,None,0.28768279193900526,,,,,,,DEC004,001,2022_May_18_1431,2-25_cond_decay_EYE-try,2021.2.3,164.97306459079215,
left,1.0,0.75,1,1,0,1,0,0,0,0,0,0,4,4,6,,,,,,,,,,,,,,,5s,682.2830326859839,683.2826521948446,683.2708244789392,None,684.2712035959121,687.0773869028781,684.2712035959121,687.0773869028781,687.0773869028781,None,687.0773869028781,None,space,687.0773869028781,None,2.8017,687.5985010028817,None,0.38235181709751487,,,,,,,DEC004,001,2022_May_18_1431,2-25_cond_decay_EYE-try,2021.2.3,164.97306459079215,
left,0.75,1.0,0,1,0,1,0,0,0,0,0,0,5,5,3,,,,,,,,,,,,,,,5s,688.6528291038703,689.6528517890256,689.6468215070199,None,690.6467507570051,692.2053610058501,690.6467507570051,692.2053610058501,692.199421643978,None,692.199421643978,None,space,692.199421643978,None,1.5544,692.6288985239808,None,0.2923255548812449,,,,,,,DEC004,001,2022_May_18_1431,2-25_cond_decay_EYE-try,2021.2.3,164.97306459079215,
left,0.75,1.0,0,1,0,1,0,0,0,0,0,0,6,6,1,,,,,,,,,,,,,,,5s,693.6776467438322,694.6767056938261,694.6704677329399,None,695.6712284788955,697.8582806838676,695.6712284788955,697.8582806838676,697.8582806838676,None,697.8582806838676,None,space,697.8582806838676,None,2.1842,698.2541890628636,None,0.2654538319911808,,,,,,,DEC004,001,2022_May_18_1431,2-25_cond_decay_EYE-try,2021.2.3,164.97306459079215,
right,1.0,0.75,0,1,0,1,0,0,0,0,0,0,7,7,2,,,,,,,,,,,,,,,5s,699.3136443039402,700.3132591689937,700.3003871820401,None,701.300551509019,703.5610654149204,701.300551509019,703.5610654149204,703.5610654149204,None,703.5610654149204,None,space,703.5610654149204,None,2.2604,703.9316627669614,None,0.2426812679041177,,,,,,,DEC004,001,2022_May_18_1431,2-25_cond_decay_EYE-try,2021.2.3,164.97306459079215,
right,0.75,1.0,1,1,0,1,0,0,0,0,0,0,8,8,8,,,,,,,,,,,,,,,5s,704.9868216488976,705.9915316738188,705.9853635998443,None,706.9858995578252,707.8524804818444,706.9858995578252,707.8524804818444,707.8524804818444,None,707.8524804818444,None,space,707.8524804818444,None,0.8663,708.3374299709685,None,0.35126004787161946,,,,,,,DEC004,001,2022_May_18_1431,2-25_cond_decay_EYE-try,2021.2.3,164.97306459079215,
right,1.0,0.75,0,1,0,1,0,0,0,0,0,0,9,9,7,,,,,,,,,,,,,,,5s,709.385970880976,710.3856595968828,710.3797924469691,None,711.3799461729359,715.4459193549119,711.3799461729359,715.4459193549119,715.4459193549119,None,715.4459193549119,None,space,715.4459193549119,None,4.0663,715.8649057908915,None,0.285812129965052,,,,,,,DEC004,001,2022_May_18_1431,2-25_cond_decay_EYE-try,2021.2.3,164.97306459079215,
left,0.75,1.0,0,1,0,1,0,0,0,0,0,1,0,10,1,,,,,,,,,,,,,,,5s,716.9185882660095,717.9192613379564,717.9131057148334,None,718.9132494570222,723.040393604897,718.9132494570222,723.040393604897,723.0342262908816,None,723.0342262908816,None,space,723.0342262908816,None,4.1169,723.4478043289855,None,0.2735251721460372,,,,,,,DEC004,001,2022_May_18_1431,2-25_cond_decay_EYE-try,2021.2.3,164.97306459079215,
left,0.75,1.0,0,1,0,1,0,0,0,0,0,1,1,11,4,,,,,,,,,,,,,,,5s,724.5002408339642,725.5011293538846,725.4882125819568,None,726.4879289569799,727.422257337952,726.4879289569799,727.422257337952,727.422257337952,None,727.422257337952,None,space,727.422257337952,None,0.9345,727.9980443299282,None,0.4374881568364799,,,,,,,DEC004,001,2022_May_18_1431,2-25_cond_decay_EYE-try,2021.2.3,164.97306459079215,
right,1.0,0.75,0,1,0,1,0,0,0,0,0,1,2,12,2,,,,,,,,,,,,,,,5s,729.0524150498677,730.0527028788347,730.0396993288305,None,731.0401863448787,735.8523993110284,731.0401863448787,735.8523993110284,735.8523993110284,None,735.8523993110284,None,space,735.8523993110284,None,4.8089,736.337387601845,None,0.3513432720210403,,,,,,,DEC004,001,2022_May_18_1431,2-25_cond_decay_EYE-try,2021.2.3,164.97306459079215,
left,1.0,0.75,1,1,0,1,0,0,0,0,0,1,3,13,6,,,,,,,,,,,,,,,5s,737.3857052070089,738.3848647288978,738.3729179720394,None,739.3729668059386,741.2213597698137,739.3729668059386,741.2213597698137,741.2213597698137,None,741.2213597698137,None,space,741.2213597698137,None,1.8496,741.7019705409184,None,0.35039136395789683,,,,,,,DEC004,001,2022_May_18_1431,2-25_cond_decay_EYE-try,2021.2.3,164.97306459079215,
right,1.0,0.75,0,1,0,1,0,0,0,0,0,1,4,14,0,,,,,,,,,,,,,,,5s,742.7613237279002,743.7608260100242,743.7489016980398,None,744.7485860548913,747.8944950050209,744.7485860548913,747.8944950050209,747.8944950050209,None,747.8944950050209,None,space,747.8944950050209,None,3.1414,748.3672981238924,None,0.33324956404976547,,,,,,,DEC004,001,2022_May_18_1431,2-25_cond_decay_EYE-try,2021.2.3,164.97306459079215,
left,0.75,1.0,0,1,0,1,0,0,0,0,0,1,5,15,3,,,,,,,,,,,,,,,5s,749.4276830698363,750.4269943928812,750.415023196023,None,751.4149280039128,753.7915945148561,751.4149280039128,753.7915945148561,753.7844448259566,None,753.7844448259566,None,space,753.7844448259566,None,2.3663,754.246552655939,None,0.32330047292634845,,,,,,,DEC004,001,2022_May_18_1431,2-25_cond_decay_EYE-try,2021.2.3,164.97306459079215,
right,1.0,0.75,0,1,0,1,0,0,0,0,0,1,6,16,9,,,,,,,,,,,,,,,5s,755.3005266569089,756.3007792639546,756.2877541689668,None,757.2877390359063,759.766861830838,757.2877390359063,759.766861830838,759.766861830838,None,759.766861830838,None,space,759.766861830838,None,2.4796,760.2270378030371,None,0.324885776033625,,,,,,,DEC004,001,2022_May_18_1431,2-25_cond_decay_EYE-try,2021.2.3,164.97306459079215,
right,1.0,0.75,0,1,0,1,0,0,0,0,0,1,7,17,7,,,,,,,,,,,,,,,5s,761.2757321738172,762.2755255568773,762.2692957320251,None,763.2694815970026,763.7730815119576,763.2694815970026,763.7730815119576,763.7672193809412,None,763.7672193809412,None,space,763.7672193809412,None,0.4935,764.3678360418417,None,0.46852745302021503,,,,,,,DEC004,001,2022_May_18_1431,2-25_cond_decay_EYE-try,2021.2.3,164.97306459079215,
right,0.75,1.0,1,1,0,1,0,0,0,0,0,1,8,18,8,,,,,,,,,,,,,,,5s,765.4209568158258,766.4211181518622,766.4152730980422,None,767.4151058618445,767.5723111878615,767.4151058618445,767.5723111878615,767.5723111878615,None,767.5723111878615,None,space,767.5723111878615,None,0.156,768.1005317468662,None,0.39142292691394687,,,,,,,DEC004,001,2022_May_18_1431,2-25_cond_decay_EYE-try,2021.2.3,164.97306459079215,
left,0.75,1.0,0,1,0,1,0,0,0,0,0,1,9,19,5,,,,,,,,,,,,,,,5s,769.1622341379989,770.1666327239946,770.1546764508821,None,771.1538851119112,773.5612589139491,771.1538851119112,773.5612589139491,773.5554124529008,None,773.5554124529008,None,space,773.5554124529008,None,2.4015,773.9973990358412,None,0.3043511041905731,,,,,,,DEC004,001,2022_May_18_1431,2-25_cond_decay_EYE-try,2021.2.3,164.97306459079215,
,,,,1,0,1,0,0,0,0,0,,,,,,,,,,,,,,,,,,,,,,,,,,,,,,,,,,,,,,,,,,,,,DEC004,001,2022_May_18_1431,2-25_cond_decay_EYE-try,2021.2.3,164.97306459079215,
right,1.0,0.75,0,1,0,1,0,1,0,1,0,0,0,0,7,,,,,,,,,774.888304252876,None,774.888304252876,None,774.888304252876,None,1s,776.2146482940298,777.2153427018784,777.2089499388821,None,778.2084480398335,778.4206864358857,778.2084480398335,778.4206864358857,778.4206864358857,None,778.4206864358857,None,space,778.4206864358857,None,0.2126,778.8030773289502,None,0.2470596490893513,,,,,,,DEC004,001,2022_May_18_1431,2-25_cond_decay_EYE-try,2021.2.3,164.97306459079215,
left,0.75,1.0,0,1,0,1,0,1,0,1,0,0,1,1,1,,,,,,,,,,,,,,,1s,779.8569360019173,780.8568705739453,780.8531259919982,None,781.8512471918948,782.4642845848575,781.8512471918948,782.4642845848575,782.4584513448644,None,782.4584513448644,None,space,782.4584513448644,None,0.6075,782.8213494808879,None,0.22531553101725876,,,,,,,DEC004,001,2022_May_18_1431,2-25_cond_decay_EYE-try,2021.2.3,164.97306459079215,
right,1.0,0.75,0,1,0,1,0,1,0,1,0,0,2,2,6,,,,,,,,,,,,,,,1s,783.8819875649642,784.8820658498444,784.8693580569234,None,785.8694252800196,786.7723756209016,785.8694252800196,786.7723756209016,786.7723756209016,None,786.7723756209016,None,space,786.7723756209016,None,0.9014,787.1608680968639,None,0.2553714979439974,,,,,,,DEC004,001,2022_May_18_1431,2-25_cond_decay_EYE-try,2021.2.3,164.97306459079215,
right,1.0,0.75,0,1,0,1,0,1,0,1,0,0,3,3,3,,,,,,,,,,,,,,,1s,788.2089454529341,789.2083727288991,789.2026210059412,None,790.2028062529862,790.4753978408407,790.2028062529862,790.4753978408407,790.4753978408407,None,790.4753978408407,None,space,790.4753978408407,None,0.2709,790.9130342069548,None,0.3043540280777961,,,,,,,DEC004,001,2022_May_18_1431,2-25_cond_decay_EYE-try,2021.2.3,164.97306459079215,
left,0.75,1.0,0,1,0,1,0,1,0,1,0,0,4,4,8,,,,,,,,,,,,,,,1s,791.9727095100097,792.9720446539577,792.9680034029298,None,793.9660881808959,794.3728135628626,793.9660881808959,794.3728135628626,794.3728135628626,None,794.3728135628626,None,space,794.3728135628626,None,0.4059,794.7613652979489,None,0.25492660887539387,,,,,,,DEC004,001,2022_May_18_1431,2-25_cond_decay_EYE-try,2021.2.3,164.97306459079215,
right,1.0,0.75,0,1,0,1,0,1,0,1,0,0,5,5,0,,,,,,,,,,,,,,,1s,795.8204661209602,796.8213197989389,796.8090691808611,None,797.8084970859345,798.1536955910269,797.8084970859345,798.1536955910269,798.1536955910269,None,798.1536955910269,None,space,798.1536955910269,None,0.343,798.5179347889498,None,0.23405754216946661,,,,,,,DEC004,001,2022_May_18_1431,2-25_cond_decay_EYE-try,2021.2.3,164.97306459079215,
left,0.75,1.0,0,1,0,1,0,1,0,1,0,0,6,6,9,,,,,,,,,,,,,,,1s,799.5792899478693,800.584170545917,800.5717575929593,None,801.5727360239252,801.9733821779955,801.5727360239252,801.9733821779955,801.9674916758668,None,801.9674916758668,None,space,801.9674916758668,None,0.3944,802.3541334508918,None,0.25226560700684786,,,,,,,DEC004,001,2022_May_18_1431,2-25_cond_decay_EYE-try,2021.2.3,164.97306459079215,
left,0.75,1.0,0,1,0,1,0,1,0,1,0,0,7,7,4,,,,,,,,,,,,,,,1s,803.3983218648937,804.4029515699949,804.3901378510054,None,805.3901908749249,806.2506993268616,805.3901908749249,806.2506993268616,806.2506993268616,None,806.2506993268616,None,space,806.2506993268616,None,0.8576,806.615564852953,None,0.23305150982923806,,,,,,,DEC004,001,2022_May_18_1431,2-25_cond_decay_EYE-try,2021.2.3,164.97306459079215,
right,0.75,1.0,1,1,0,1,0,1,0,1,0,0,8,8,5,,,,,,,,,,,,,,,1s,807.6749463288579,808.6747654969804,808.6688349768519,None,809.668805463938,810.5776955508627,809.668805463938,810.5776955508627,810.5776955508627,None,810.5776955508627,None,space,810.5776955508627,None,0.9089,810.9490181419533,None,0.24205149407498538,,,,,,,DEC004,001,2022_May_18_1431,2-25_cond_decay_EYE-try,2021.2.3,164.97306459079215,
right,1.0,0.75,0,1,0,1,0,1,0,1,0,0,9,9,2,,,,,,,,,,,,,,,1s,812.0026724690106,813.0021098619327,812.9960448588245,None,813.9964069088455,814.742052417947,813.9964069088455,814.742052417947,814.742052417947,None,814.742052417947,None,space,814.742052417947,None,0.7455,815.0992463438306,None,0.22969552595168352,,,,,,,DEC004,001,2022_May_18_1431,2-25_cond_decay_EYE-try,2021.2.3,164.97306459079215,
right,1.0,0.75,0,1,0,1,0,1,0,1,0,1,0,10,6,,,,,,,,,,,,,,,1s,816.1474407380447,817.1480352620129,817.1420011098962,None,818.1418530410156,818.3415840999223,818.1418530410156,818.3415840999223,818.3415840999223,None,818.3415840999223,None,None,818.3415840999223,None,0.2003,819.4691536109895,None,,,,,,,,DEC004,001,2022_May_18_1431,2-25_cond_decay_EYE-try,2021.2.3,164.97306459079215,
right,1.0,0.75,0,1,0,1,0,1,0,1,0,1,1,11,0,,,,,,,,,,,,,,,1s,820.5183407419827,821.5230229818262,821.5169623310212,None,822.5179858210031,823.311830191873,822.5179858210031,823.311830191873,823.3058908130042,None,823.3058908130042,None,space,823.3058908130042,None,0.7841,823.6990963579156,None,0.24986661202274263,,,,,,,DEC004,001,2022_May_18_1431,2-25_cond_decay_EYE-try,2021.2.3,164.97306459079215,
right,1.0,0.75,0,1,0,1,0,1,0,1,0,1,2,12,2,,,,,,,,,,,,,,,1s,824.7413999380078,825.7419053339399,825.7360255538952,None,826.7353177468758,827.2222087569535,826.7353177468758,827.2222087569535,827.2152318679728,None,827.2152318679728,None,space,827.2152318679728,None,0.482,827.6084846628364,None,0.2605322350282222,,,,,,,DEC004,001,2022_May_18_1431,2-25_cond_decay_EYE-try,2021.2.3,164.97306459079215,
right,0.75,1.0,1,1,0,1,0,1,0,1,0,1,3,13,5,,,,,,,,,,,,,,,1s,828.6567298818845,829.6562277248595,829.6447529660072,None,830.644162270939,831.4444329869002,830.644162270939,831.4444329869002,831.4444329869002,None,831.4444329869002,None,space,831.4444329869002,None,0.7979,831.8342660919297,None,0.2553110411390662,,,,,,,DEC004,001,2022_May_18_1431,2-25_cond_decay_EYE-try,2021.2.3,164.97306459079215,
left,0.75,1.0,0,1,0,1,0,1,0,1,0,1,4,14,8,,,,,,,,,,,,,,,1s,832.8929659549613,833.8932139179669,833.8872799228411,None,834.881228125887,835.0987063979264,834.881228125887,835.0987063979264,835.0987063979264,None,835.0987063979264,None,space,835.0987063979264,None,0.2147,835.5654553798959,None,0.3290465970057994,,,,,,,DEC004,001,2022_May_18_1431,2-25_cond_decay_EYE-try,2021.2.3,164.97306459079215,
left,1.0,0.75,1,1,0,1,0,1,0,1,0,1,5,15,7,,,,,,,,,,,,,,,1s,836.6148392539471,837.6137791909277,837.6077209259383,None,838.608398757875,839.1545141639654,838.608398757875,839.1545141639654,839.1486239780206,None,839.1486239780206,None,space,839.1486239780206,None,0.5412,839.5294392870273,None,0.2471259580925107,,,,,,,DEC004,001,2022_May_18_1431,2-25_cond_decay_EYE-try,2021.2.3,164.97306459079215,
left,0.75,1.0,0,1,0,1,0,1,0,1,0,1,6,16,1,,,,,,,,,,,,,,,1s,840.5777609178331,841.5783572008368,841.5734393508174,None,842.5723289570305,843.4746112278663,842.5723289570305,843.4746112278663,843.4746112278663,None,843.4746112278663,None,space,843.4746112278663,None,0.9018,843.8633761678357,None,0.2571387831121683,,,,,,,DEC004,001,2022_May_18_1431,2-25_cond_decay_EYE-try,2021.2.3,164.97306459079215,
right,1.0,0.75,0,1,0,1,0,1,0,1,0,1,7,17,3,,,,,,,,,,,,,,,1s,844.9231505950447,845.9237246899866,845.9113742138725,None,846.9108157600276,847.6927441370208,846.9108157600276,847.6927441370208,847.6927441370208,None,847.6927441370208,None,space,847.6927441370208,None,0.7787,848.0750369869638,None,0.2470109269488603,,,,,,,DEC004,001,2022_May_18_1431,2-25_cond_decay_EYE-try,2021.2.3,164.97306459079215,
left,0.75,1.0,0,1,0,1,0,1,0,1,0,1,8,18,9,,,,,,,,,,,,,,,1s,849.1234400118701,850.1236505110282,850.11079070298,None,851.1114305430092,851.4322500778362,851.1114305430092,851.4322500778362,851.4322500778362,None,851.4322500778362,None,space,851.4322500778362,None,0.3186,851.8396327299997,None,0.27550982497632504,,,,,,,DEC004,001,2022_May_18_1431,2-25_cond_decay_EYE-try,2021.2.3,164.97306459079215,
left,0.75,1.0,0,1,0,1,0,1,0,1,0,1,9,19,4,,,,,,,,,,,,,,,1s,852.8924315629993,853.8922957659233,853.8872617019806,None,854.8869126839563,855.3965292088687,854.8869126839563,855.3965292088687,855.3908092759084,None,855.3908092759084,None,space,855.3908092759084,None,0.5063,855.7537991388235,None,0.22896412597037852,,,,,,,DEC004,001,2022_May_18_1431,2-25_cond_decay_EYE-try,2021.2.3,164.97306459079215,
,,,,1,0,1,0,1,0,1,0,,,,,,,,,,,,,,,,,,,,,,,,,,,,,,,,,,,,,,,,,,,,,DEC004,001,2022_May_18_1431,2-25_cond_decay_EYE-try,2021.2.3,164.97306459079215,
left,0.75,1.0,0,1,0,1,0,2,0,2,0,0,0,0,2,,,,,,,,,856.6399880419485,None,856.6399880419485,None,856.6399880419485,None,3s,857.9232831469271,858.9234229288995,858.9107228210196,None,859.9109999188222,862.5898631350137,859.9109999188222,862.5898631350137,862.5840869010426,None,862.5840869010426,None,space,862.5840869010426,None,2.6686,862.9902458179276,None,0.26774831395596266,,,,,,,DEC004,001,2022_May_18_1431,2-25_cond_decay_EYE-try,2021.2.3,164.97306459079215,
right,1.0,0.75,0,1,0,1,0,2,0,2,0,0,1,1,8,,,,,,,,,,,,,,,3s,864.0451658568345,865.044293358922,865.0382980888244,None,866.0385787589476,868.2684530180413,866.0385787589476,868.2684530180413,868.2684530180413,None,868.2684530180413,None,space,868.2684530180413,None,2.2308,868.6990041648969,None,0.29530296893790364,,,,,,,DEC004,001,2022_May_18_1431,2-25_cond_decay_EYE-try,2021.2.3,164.97306459079215,
left,0.75,1.0,0,1,0,1,0,2,0,2,0,0,2,2,9,,,,,,,,,,,,,,,3s,869.7529194930103,870.7532800310291,870.7475827429444,None,871.7469142980408,872.2556760949083,871.7469142980408,872.2556760949083,872.2556760949083,None,872.2556760949083,None,space,872.2556760949083,None,0.5095,872.7226727958769,None,0.3320886460132897,,,,,,,DEC004,001,2022_May_18_1431,2-25_cond_decay_EYE-try,2021.2.3,164.97306459079215,
left,0.75,1.0,0,1,0,1,0,2,0,2,0,0,3,3,4,,,,,,,,,,,,,,,3s,873.7714143199846,874.7707376519684,874.7669552969746,None,875.7649475489743,877.1468452299014,875.7649475489743,877.1468452299014,877.1468452299014,None,877.1468452299014,None,space,877.1468452299014,None,1.3812,877.5528955080081,None,0.272898836992681,,,,,,,DEC004,001,2022_May_18_1431,2-25_cond_decay_EYE-try,2021.2.3,164.97306459079215,
right,1.0,0.75,0,1,0,1,0,2,0,2,0,0,4,4,3,,,,,,,,,,,,,,,3s,878.6032413179055,879.6079991508741,879.5957674698438,None,880.5957707639318,880.7669051019475,880.5957707639318,880.7669051019475,880.7608232419007,None,880.7608232419007,None,space,880.7608232419007,None,0.166,881.2865464128554,None,0.38693420798517764,,,,,,,DEC004,001,2022_May_18_1431,2-25_cond_decay_EYE-try,2021.2.3,164.97306459079215,
right,1.0,0.75,0,1,0,1,0,2,0,2,0,0,5,5,1,,,,,,,,,,,,,,,3s,882.3356552938931,883.3352010759991,883.3291263298597,None,884.3350968919694,886.5606002889108,884.3350968919694,886.5606002889108,886.5545003998559,None,886.5545003998559,None,space,886.5545003998559,None,2.2229,887.0134812439792,None,0.3212665568571538,,,,,,,DEC004,001,2022_May_18_1431,2-25_cond_decay_EYE-try,2021.2.3,164.97306459079215,
right,1.0,0.75,0,1,0,1,0,2,0,2,0,0,6,6,0,,,,,,,,,,,,,,,3s,888.0627009468153,889.0615124818869,889.0555916980375,None,890.0565526979044,890.8495131558739,890.0565526979044,890.8495131558739,890.8495131558739,None,890.8495131558739,None,space,890.8495131558739,None,0.794,891.3532742799725,None,0.3702504448592663,,,,,,,DEC004,001,2022_May_18_1431,2-25_cond_decay_EYE-try,2021.2.3,164.97306459079215,
left,0.75,1.0,0,1,0,1,0,2,0,2,0,0,7,7,5,,,,,,,,,,,,,,,3s,892.4079593238421,893.407294801902,893.3954270628747,None,894.3955539539456,896.9889203978237,894.3955539539456,896.9889203978237,896.9889203978237,None,896.9889203978237,None,space,896.9889203978237,None,2.5927,897.366542950971,None,0.24683612794615328,,,,,,,DEC004,001,2022_May_18_1431,2-25_cond_decay_EYE-try,2021.2.3,164.97306459079215,
left,0.75,1.0,0,1,0,1,0,2,0,2,0,0,8,8,6,,,,,,,,,,,,,,,3s,898.4190360838547,899.4193373038433,899.414309151005,None,900.4138371238951,903.3772241938859,900.4138371238951,903.3772241938859,903.3772241938859,None,903.3772241938859,None,space,903.3772241938859,None,2.9628,903.825106956996,None,0.3145447298884392,,,,,,,DEC004,001,2022_May_18_1431,2-25_cond_decay_EYE-try,2021.2.3,164.97306459079215,
right,0.75,1.0,1,1,0,1,0,2,0,2,0,0,9,9,7,,,,,,,,,,,,,,,3s,904.8805666498374,905.8801412198227,905.8673836500384,None,906.8681260978337,909.1890143319033,906.8681260978337,909.1890143319033,909.1890143319033,None,909.1890143319033,None,space,909.1890143319033,None,2.3166,909.7347673238255,None,0.41474128514528275,,,,,,,DEC004,001,2022_May_18_1431,2-25_cond_decay_EYE-try,2021.2.3,164.97306459079215,
right,1.0,0.75,0,1,0,1,0,2,0,2,0,1,0,10,3,,,,,,,,,,,,,,,3s,910.7894013419282,911.7886813899968,911.7772103350144,None,912.7763372589834,913.9279520048294,912.7763372589834,913.9279520048294,913.9279520048294,None,913.9279520048294,None,space,913.9279520048294,None,1.1501,914.3401706798468,None,0.27579891588538885,,,,,,,DEC004,001,2022_May_18_1431,2-25_cond_decay_EYE-try,2021.2.3,164.97306459079215,
right,1.0,0.75,0,1,0,1,0,2,0,2,0,1,1,11,1,,,,,,,,,,,,,,,3s,915.396217196947,916.4007233988959,916.3948286299128,None,917.3954589038622,919.9226624809671,917.3954589038622,919.9226624809671,919.9166414609645,None,919.9166414609645,None,space,919.9166414609645,None,2.5213,920.4025439869147,None,0.3511295870412141,,,,,,,DEC004,001,2022_May_18_1431,2-25_cond_decay_EYE-try,2021.2.3,164.97306459079215,
right,1.0,0.75,0,1,0,1,0,2,0,2,0,1,2,12,0,,,,,,,,,,,,,,,3s,921.4492419159506,922.4495737189427,922.4435454630293,None,923.4435561229475,925.6386871139985,923.4435561229475,925.6386871139985,925.632673030952,None,925.632673030952,None,space,925.632673030952,None,2.1903,926.1422174088657,None,0.37909232801757753,,,,,,,DEC004,001,2022_May_18_1431,2-25_cond_decay_EYE-try,2021.2.3,164.97306459079215,
left,0.75,1.0,0,1,0,1,0,2,0,2,0,1,3,13,6,,,,,,,,,,,,,,,3s,927.2025018348359,928.2064275899902,928.1942752590403,None,929.1943615160417,931.9883960089646,929.1943615160417,931.9883960089646,931.9883960089646,None,931.9883960089646,None,space,931.9883960089646,None,2.7926,932.3839272728655,None,0.2633778948802501,,,,,,,DEC004,001,2022_May_18_1431,2-25_cond_decay_EYE-try,2021.2.3,164.97306459079215,
right,0.75,1.0,1,1,0,1,0,2,0,2,0,1,4,14,7,,,,,,,,,,,,,,,3s,933.4429587628692,934.4437776869163,934.4314178780187,None,935.4311448489316,935.849701073952,935.4311448489316,935.849701073952,935.849701073952,None,935.849701073952,None,space,935.849701073952,None,0.4169,936.4016262439545,None,0.41806156700477004,,,,,,,DEC004,001,2022_May_18_1431,2-25_cond_decay_EYE-try,2021.2.3,164.97306459079215,
right,1.0,0.75,0,1,0,1,0,2,0,2,0,1,5,15,8,,,,,,,,,,,,,,,3s,937.4497375669889,938.4495315409731,938.4433171509299,None,939.4495310839266,941.4987383589614,939.4495310839266,941.4987383589614,941.4927337570116,None,941.4927337570116,None,space,941.4927337570116,None,2.0475,941.9407364919316,None,0.31103692506439984,,,,,,,DEC004,001,2022_May_18_1431,2-25_cond_decay_EYE-try,2021.2.3,164.97306459079215,
left,1.0,0.75,1,1,0,1,0,2,0,2,0,1,6,16,2,,,,,,,,,,,,,,,3s,942.9963622910436,943.9943061908707,943.98927189596,None,944.9885623790324,945.740570244845,944.9885623790324,945.740570244845,945.7345721488819,None,945.7345721488819,None,space,945.7345721488819,None,0.741,946.188945543021,None,0.3171979868784547,,,,,,,DEC004,001,2022_May_18_1431,2-25_cond_decay_EYE-try,2021.2.3,164.97306459079215,
left,0.75,1.0,0,1,0,1,0,2,0,2,0,1,7,17,5,,,,,,,,,,,,,,,3s,947.2378846500069,948.2366149649024,948.2315423819236,None,949.2309899239335,951.9336863469798,949.2309899239335,951.9336863469798,951.9396245458629,None,951.9396245458629,None,space,951.9396245458629,None,2.7039,952.3949003210291,None,0.32013814710080624,,,,,,,DEC004,001,2022_May_18_1431,2-25_cond_decay_EYE-try,2021.2.3,164.97306459079215,
left,0.75,1.0,0,1,0,1,0,2,0,2,0,1,8,18,4,,,,,,,,,,,,,,,3s,953.4373158058152,954.4365685980301,954.4326855828986,None,955.4305808730423,956.6980862549972,955.4305808730423,956.6980862549972,956.6980862549972,None,956.6980862549972,None,space,956.6980862549972,None,1.2662,957.1164527728688,None,0.289683316135779,,,,,,,DEC004,001,2022_May_18_1431,2-25_cond_decay_EYE-try,2021.2.3,164.97306459079215,
left,0.75,1.0,0,1,0,1,0,2,0,2,0,1,9,19,9,,,,,,,,,,,,,,,3s,958.1700538909063,959.1698889080435,959.1637692239601,None,960.1640239709523,961.5830558759626,960.1640239709523,961.5830558759626,961.5771875949576,None,961.5771875949576,None,space,961.5771875949576,None,1.4144,962.0430950098671,None,0.33061477914452553,,,,,,,DEC004,001,2022_May_18_1431,2-25_cond_decay_EYE-try,2021.2.3,164.97306459079215,
,,,,1,0,1,0,2,0,2,0,,,,,,,,,,,,,,,,,,,,,,,,,,,,,,,,,,,,,,,,,,,,,DEC004,001,2022_May_18_1431,2-25_cond_decay_EYE-try,2021.2.3,164.97306459079215,
right,1.0,0.75,0,1,0,1,0,3,0,3,0,0,0,0,6,,,,,,,,,962.9335615090095,None,962.9335615090095,None,962.9335615090095,None,10s,964.4021246328484,965.4062759899534,965.3948909509927,None,966.3947728809435,972.6543553238735,966.3947728809435,972.6543553238735,972.6543553238735,None,972.6543553238735,None,space,972.6543553238735,None,6.2599,973.074874867918,None,0.28541657608002424,,,,,,,DEC004,001,2022_May_18_1431,2-25_cond_decay_EYE-try,2021.2.3,164.97306459079215,
left,0.75,1.0,0,1,0,1,0,3,0,3,0,0,1,1,8,,,,,,,,,,,,,,,10s,974.1402581830043,975.1392396688461,975.1331184618175,None,976.1334450000431,977.8078850139864,976.1334450000431,977.8078850139864,977.8017791998573,None,977.8017791998573,None,space,977.8017791998573,None,1.668,978.2668382369447,None,0.3300088210962713,,,,,,,DEC004,001,2022_May_18_1431,2-25_cond_decay_EYE-try,2021.2.3,164.97306459079215,
right,1.0,0.75,0,1,0,1,0,3,0,3,0,0,2,2,7,,,,,,,,,,,,,,,10s,979.3215916778427,980.3218065409455,980.3095286269672,None,981.3087699569296,982.5046837730333,981.3087699569296,982.5046837730333,982.4988420349546,None,982.4988420349546,None,space,982.4988420349546,None,1.1911,982.9879131608177,None,0.3529185538645834,,,,,,,DEC004,001,2022_May_18_1431,2-25_cond_decay_EYE-try,2021.2.3,164.97306459079215,
right,0.75,1.0,1,1,0,1,0,3,0,3,0,0,3,3,4,,,,,,,,,,,,,,,10s,984.0427411929704,985.0421792769339,985.0360414609313,None,986.0368690849282,992.6365196190309,986.0368690849282,992.6365196190309,992.6365196190309,None,992.6365196190309,None,None,992.6365196190309,None,6.5981,993.7632751078345,None,,,,,,,,DEC004,001,2022_May_18_1431,2-25_cond_decay_EYE-try,2021.2.3,164.97306459079215,
left,1.0,0.75,1,1,0,1,0,3,0,3,0,0,4,4,1,,,,,,,,,,,,,,,10s,994.8177057998255,995.8187430049293,995.8055367118213,None,996.8064010599628,1005.9710099748336,996.8064010599628,1005.9710099748336,1005.9651500468608,None,1005.9651500468608,None,space,1005.9651500468608,None,9.1594,1006.6865279499907,None,0.5826224649790674,,,,,,,DEC004,001,2022_May_18_1431,2-25_cond_decay_EYE-try,2021.2.3,164.97306459079215,
left,0.75,1.0,0,1,0,1,0,3,0,3,0,0,5,5,3,,,,,,,,,,,,,,,10s,1007.7334475249518,1008.7336403669324,1008.7267754978966,None,1009.7272300608456,1010.8316943410318,1009.7272300608456,1010.8316943410318,1010.8256943000015,None,1010.8256943000015,None,space,1010.8256943000015,None,1.1029,1011.47970836889,None,0.5220784929115325,,,,,,,DEC004,001,2022_May_18_1431,2-25_cond_decay_EYE-try,2021.2.3,164.97306459079215,
left,0.75,1.0,0,1,0,1,0,3,0,3,0,0,6,6,2,,,,,,,,,,,,,,,10s,1012.5392638079356,1013.5397826370317,1013.526608201908,None,1014.527145095868,1020.5887886679266,1014.527145095868,1020.5887886679266,1020.5829239299055,None,1020.5829239299055,None,space,1020.5829239299055,None,6.0563,1021.1273001160007,None,0.40485349483788013,,,,,,,DEC004,001,2022_May_18_1431,2-25_cond_decay_EYE-try,2021.2.3,164.97306459079215,
right,1.0,0.75,0,1,0,1,0,3,0,3,0,0,7,7,5,,,,,,,,,,,,,,,10s,1022.1765066159423,1023.1819775949698,1023.1690106068272,None,1024.1697304658592,1029.29660384194,1024.1697304658592,1029.29660384194,1029.29660384194,None,1029.29660384194,None,space,1029.29660384194,None,5.1273,1029.8314913569484,None,0.4031848949380219,,,,,,,DEC004,001,2022_May_18_1431,2-25_cond_decay_EYE-try,2021.2.3,164.97306459079215,
right,1.0,0.75,0,1,0,1,0,3,0,3,0,0,8,8,9,,,,,,,,,,,,,,,10s,1030.885012513958,1031.884768793825,1031.8779057189822,None,1032.8787607080303,1042.715176329948,1032.8787607080303,1042.715176329948,1042.7079261080362,None,1042.7079261080362,None,space,1042.7079261080362,None,9.8257,1043.2130040589254,None,0.3758828630670905,,,,,,,DEC004,001,2022_May_18_1431,2-25_cond_decay_EYE-try,2021.2.3,164.97306459079215,
left,0.75,1.0,0,1,0,1,0,3,0,3,0,0,9,9,0,,,,,,,,,,,,,,,10s,1044.2661905079149,1045.2665326469578,1045.2538395209704,None,1046.2541269869544,1052.5506115348544,1046.2541269869544,1052.5506115348544,1052.5506115348544,None,1052.5506115348544,None,space,1052.5506115348544,None,6.2969,1053.0118111299817,None,0.32520727813243866,,,,,,,DEC004,001,2022_May_18_1431,2-25_cond_decay_EYE-try,2021.2.3,164.97306459079215,
left,0.75,1.0,0,1,0,1,0,3,0,3,0,1,0,10,2,,,,,,,,,,,,,,,10s,1054.0598177418578,1055.0594491329975,1055.054670093814,None,1056.053419378819,1063.5219544458669,1056.053419378819,1063.5219544458669,1063.5159898158163,None,1063.5159898158163,None,space,1063.5159898158163,None,7.464,1063.9387618210167,None,0.28779896604828537,,,,,,,DEC004,001,2022_May_18_1431,2-25_cond_decay_EYE-try,2021.2.3,164.97306459079215,
right,0.75,1.0,1,1,0,1,0,3,0,3,0,1,1,11,4,,,,,,,,,,,,,,,10s,1064.9936279889662,1065.992533621844,1065.987609746866,None,1066.9868124488275,1070.3018900838215,1066.9868124488275,1070.3018900838215,1070.2962180168834,None,1070.2962180168834,None,space,1070.2962180168834,None,3.3064,1070.913869534852,None,0.4835796740371734,,,,,,,DEC004,001,2022_May_18_1431,2-25_cond_decay_EYE-try,2021.2.3,164.97306459079215,
left,0.75,1.0,0,1,0,1,0,3,0,3,0,1,2,12,3,,,,,,,,,,,,,,,10s,1071.968628276838,1072.9685850399546,1072.9569202298298,None,1073.9566848778632,1082.8114040228538,1073.9566848778632,1082.8114040228538,1082.8171493008267,None,1082.8171493008267,None,space,1082.8171493008267,None,8.8553,1083.3136838509236,None,0.36266452819108963,,,,,,,DEC004,001,2022_May_18_1431,2-25_cond_decay_EYE-try,2021.2.3,164.97306459079215,
left,0.75,1.0,0,1,0,1,0,3,0,3,0,1,3,13,0,,,,,,,,,,,,,,,10s,1084.3573159158695,1085.355946993921,1085.3521358380094,None,1086.3508686569985,1096.326214686036,1086.3508686569985,1096.326214686036,1096.326214686036,None,1096.326214686036,None,space,1096.326214686036,None,9.9761,1096.8057637058664,None,0.34156714589335024,,,,,,,DEC004,001,2022_May_18_1431,2-25_cond_decay_EYE-try,2021.2.3,164.97306459079215,
right,1.0,0.75,0,1,0,1,0,3,0,3,0,1,4,14,9,,,,,,,,,,,,,,,10s,1097.865606797859,1098.8650909049902,1098.8536320629064,None,1099.8530373019166,1104.144816030981,1099.8530373019166,1104.144816030981,1104.1390889708418,None,1104.1390889708418,None,space,1104.1390889708418,None,4.2859,1104.6528510400094,None,0.3767053571064025,,,,,,,DEC004,001,2022_May_18_1431,2-25_cond_decay_EYE-try,2021.2.3,164.97306459079215,
right,1.0,0.75,0,1,0,1,0,3,0,3,0,1,5,15,6,,,,,,,,,,,,,,,10s,1105.7079421980307,1106.7075834230054,1106.7014442379586,None,1107.7018646330107,1112.932214180939,1107.7018646330107,1112.932214180939,1112.932214180939,None,1112.932214180939,None,space,1112.932214180939,None,5.2307,1113.5025972609874,None,0.4395766209345311,,,,,,,DEC004,001,2022_May_18_1431,2-25_cond_decay_EYE-try,2021.2.3,164.97306459079215,
left,1.0,0.75,1,1,0,1,0,3,0,3,0,1,6,16,1,,,,,,,,,,,,,,,10s,1114.5620056679472,1115.5618926100433,1115.54972666502,None,1116.5495494569186,1122.3503171228804,1116.5495494569186,1122.3503171228804,1122.3503171228804,None,1122.3503171228804,None,space,1122.3503171228804,None,5.7974,1122.9566287638154,None,0.4774772981181741,,,,,,,DEC004,001,2022_May_18_1431,2-25_cond_decay_EYE-try,2021.2.3,164.97306459079215,
right,1.0,0.75,0,1,0,1,0,3,0,3,0,1,7,17,5,,,,,,,,,,,,,,,10s,1124.0109153869562,1125.0099215798546,1124.9984096118715,None,1125.9977946369909,1128.416218383005,1125.9977946369909,1128.416218383005,1128.416218383005,None,1128.416218383005,None,space,1128.416218383005,None,2.4167,1128.9314565898385,None,0.379562018904835,,,,,,,DEC004,001,2022_May_18_1431,2-25_cond_decay_EYE-try,2021.2.3,164.97306459079215,
left,0.75,1.0,0,1,0,1,0,3,0,3,0,1,8,18,8,,,,,,,,,,,,,,,10s,1129.9862169378903,1130.9857491848525,1130.9736906359904,None,1131.974185887957,1134.5193820379209,1131.974185887957,1134.5193820379209,1134.5193820379209,None,1134.5193820379209,None,space,1134.5193820379209,None,2.5433,1135.2658656288404,None,0.6124006509780884,,,,,,,DEC004,001,2022_May_18_1431,2-25_cond_decay_EYE-try,2021.2.3,164.97306459079215,
right,1.0,0.75,0,1,0,1,0,3,0,3,0,1,9,19,7,,,,,,,,,,,,,,,10s,1136.321045152843,1137.3253726479597,1137.3190656709485,None,1138.3196543520316,1140.1250437658746,1138.3196543520316,1140.1250437658746,1140.1191974889953,None,1140.1191974889953,None,space,1140.1191974889953,None,1.7961,1140.6589304308873,None,0.40458752517588437,,,,,,,DEC004,001,2022_May_18_1431,2-25_cond_decay_EYE-try,2021.2.3,164.97306459079215,
,,,,1,0,1,0,3,0,3,0,,,,,,,,,,,,,,,,,,,,,,,,,,,,,,,,,,,,,,,,,,,,,DEC004,001,2022_May_18_1431,2-25_cond_decay_EYE-try,2021.2.3,164.97306459079215,
,,,,1,0,1,0,,,,,,,,,,,,,,,,,,,,,,,,,,,,,,,,,,,,,,,,,,,1141.545118602924,None,1141.545118602924,None,1141.545118602924,None,DEC004,001,2022_May_18_1431,2-25_cond_decay_EYE-try,2021.2.3,164.97306459079215,
right,0.75,1.0,1,2,0,2,0,0,0,0,0,0,0,0,9,,,,,,,,,1146.5490946399514,None,1146.5490946399514,None,1146.5490946399514,None,5s,1160.950095504988,1161.9553192828316,1161.9370589489117,None,1162.937174025923,1167.1972475019284,1162.937174025923,1167.1972475019284,1167.1972475019284,None,1167.1972475019284,None,space,1167.1972475019284,None,4.2592,1167.6055326210335,None,0.270545412087813,,,,,,,DEC004,001,2022_May_18_1431,2-25_cond_decay_EYE-try,2021.2.3,164.97306459079215,
right,1.0,0.75,0,2,0,2,0,0,0,0,0,0,1,1,7,,,,,,,,,,,,,,,5s,1168.6582115918864,1169.657950226916,1169.6518534650095,None,1170.6521579399705,1173.7610512338579,1170.6521579399705,1173.7610512338579,1173.7610512338579,None,1173.7610512338579,None,space,1173.7610512338579,None,3.1096,1174.2052642749622,None,0.3147556781768799,,,,,,,DEC004,001,2022_May_18_1431,2-25_cond_decay_EYE-try,2021.2.3,164.97306459079215,
right,1.0,0.75,0,2,0,2,0,0,0,0,0,0,2,2,0,,,,,,,,,,,,,,,5s,1175.2577861228492,1176.2578679739963,1176.245916924905,None,1177.2463958780281,1177.6517627728172,1177.2463958780281,1177.6517627728172,1177.6517627728172,None,1177.6517627728172,None,space,1177.6517627728172,None,0.4055,1178.1810702939983,None,0.4000436239875853,,,,,,,DEC004,001,2022_May_18_1431,2-25_cond_decay_EYE-try,2021.2.3,164.97306459079215,
right,1.0,0.75,0,2,0,2,0,0,0,0,0,0,3,3,4,,,,,,,,,,,,,,,5s,1179.2336903999094,1180.2338155009784,1180.2278647888452,None,1181.2275515960064,1183.4719999008812,1181.2275515960064,1183.4719999008812,1183.4659646959044,None,1183.4659646959044,None,space,1183.4659646959044,None,2.2393,1183.9431888358667,None,0.33783338707871735,,,,,,,DEC004,001,2022_May_18_1431,2-25_cond_decay_EYE-try,2021.2.3,164.97306459079215,
right,1.0,0.75,0,2,0,2,0,0,0,0,0,0,4,4,1,,,,,,,,,,,,,,,5s,1184.9977961909026,1185.9970110729337,1185.9918248748872,None,1186.991741842823,1188.5628625969402,1186.991741842823,1188.5628625969402,1188.556670828024,None,1188.556670828024,None,space,1188.556670828024,None,1.5666,1189.0289290598594,None,0.34312853892333806,,,,,,,DEC004,001,2022_May_18_1431,2-25_cond_decay_EYE-try,2021.2.3,164.97306459079215,
left,0.75,1.0,0,2,0,2,0,0,0,0,0,0,5,5,8,,,,,,,,,,,,,,,5s,1190.0886385769118,1191.0883371918462,1191.0762590719387,None,1192.076443299884,1196.6032325290143,1192.076443299884,1196.6032325290143,1196.6032325290143,None,1196.6032325290143,None,space,1196.6032325290143,None,4.5222,1197.0290168598294,None,0.2965551149100065,,,,,,,DEC004,001,2022_May_18_1431,2-25_cond_decay_EYE-try,2021.2.3,164.97306459079215,
left,0.75,1.0,0,2,0,2,0,0,0,0,0,0,6,6,2,,,,,,,,,,,,,,,5s,1198.0763380408753,1199.076085689012,1199.0701857388485,None,1200.0701346828137,1202.8168234729674,1200.0701346828137,1202.8168234729674,1202.8106230199337,None,1202.8106230199337,None,space,1202.8106230199337,None,2.7407,1203.2232604660094,None,0.2811719940509647,,,,,,,DEC004,001,2022_May_18_1431,2-25_cond_decay_EYE-try,2021.2.3,164.97306459079215,
left,0.75,1.0,0,2,0,2,0,0,0,0,0,0,7,7,3,,,,,,,,,,,,,,,5s,1204.276062111836,1205.275781868957,1205.2637352878228,None,1206.264136150945,1210.5800258170348,1206.264136150945,1210.5800258170348,1210.5738741909154,None,1210.5738741909154,None,space,1210.5738741909154,None,4.3096,1211.0998896230012,None,0.3899319740012288,,,,,,,DEC004,001,2022_May_18_1431,2-25_cond_decay_EYE-try,2021.2.3,164.97306459079215,
left,0.75,1.0,0,2,0,2,0,0,0,0,0,0,8,8,5,,,,,,,,,,,,,,,5s,1212.149267302826,1213.148617387982,1213.1425134460442,None,1214.14255164098,1218.4457991980016,1214.14255164098,1218.4457991980016,1218.4457991980016,None,1218.4457991980016,None,space,1218.4457991980016,None,4.3,1218.9428398958407,None,0.35799498087726533,,,,,,,DEC004,001,2022_May_18_1431,2-25_cond_decay_EYE-try,2021.2.3,164.97306459079215,
left,1.0,0.75,1,2,0,2,0,0,0,0,0,0,9,9,6,,,,,,,,,,,,,,,5s,1219.9906210480258,1220.9910683988128,1220.9851710188668,None,1221.9844324619044,1223.2637518958654,1221.9844324619044,1223.2637518958654,1223.2637518958654,None,1223.2637518958654,None,space,1223.2637518958654,None,1.2789,1223.9678815628868,None,0.572053894167766,,,,,,,DEC004,001,2022_May_18_1431,2-25_cond_decay_EYE-try,2021.2.3,164.97306459079215,
right,1.0,0.75,0,2,0,2,0,0,0,0,0,1,0,10,4,,,,,,,,,,,,,,,5s,1225.0269832098857,1226.0276436458807,1226.015046556946,None,1227.015116555849,1227.3002886259928,1227.015116555849,1227.3002886259928,1227.3002886259928,None,1227.3002886259928,None,space,1227.3002886259928,None,0.2829,1227.9257141088601,None,0.49551580799743533,,,,,,,DEC004,001,2022_May_18_1431,2-25_cond_decay_EYE-try,2021.2.3,164.97306459079215,
right,0.75,1.0,1,2,0,2,0,0,0,0,0,1,1,11,9,,,,,,,,,,,,,,,5s,1228.9792300269473,1229.9783058029134,1229.966381508857,None,1230.9666653140448,1231.7545465708245,1230.9666653140448,1231.7545465708245,1231.7545465708245,None,1231.7545465708245,None,space,1231.7545465708245,None,0.784,1232.1974298208952,None,0.3052519098855555,,,,,,,DEC004,001,2022_May_18_1431,2-25_cond_decay_EYE-try,2021.2.3,164.97306459079215,
left,0.75,1.0,0,2,0,2,0,0,0,0,0,1,2,12,8,,,,,,,,,,,,,,,5s,1233.2573704528622,1234.2571592850145,1234.251131010009,None,1235.251104668947,1237.027548719896,1235.251104668947,1237.027548719896,1237.027548719896,None,1237.027548719896,None,space,1237.027548719896,None,1.7772,1237.554365824908,None,0.39225837402045727,,,,,,,DEC004,001,2022_May_18_1431,2-25_cond_decay_EYE-try,2021.2.3,164.97306459079215,
left,0.75,1.0,0,2,0,2,0,0,0,0,0,1,3,13,2,,,,,,,,,,,,,,,5s,1238.6023420989513,1239.6026638909243,1239.5908915249165,None,1240.5906850609463,1242.723769705044,1240.5906850609463,1242.723769705044,1242.723769705044,None,1242.723769705044,None,space,1242.723769705044,None,2.133,1243.244988797931,None,0.3840359270107001,,,,,,,DEC004,001,2022_May_18_1431,2-25_cond_decay_EYE-try,2021.2.3,164.97306459079215,
left,0.75,1.0,0,2,0,2,0,0,0,0,0,1,4,14,3,,,,,,,,,,,,,,,5s,1244.299535878934,1245.3001938958187,1245.2932027059142,None,1246.2938932520337,1249.8284477388952,1246.2938932520337,1249.8284477388952,1249.8220033119433,None,1249.8220033119433,None,space,1249.8220033119433,None,3.531,1250.3015503468923,None,0.349790375912562,,,,,,,DEC004,001,2022_May_18_1431,2-25_cond_decay_EYE-try,2021.2.3,164.97306459079215,
left,0.75,1.0,0,2,0,2,0,0,0,0,0,1,5,15,5,,,,,,,,,,,,,,,5s,1251.3542635689955,1252.3537722439505,1252.3421835908666,None,1253.3415710998233,1256.4995027869008,1253.3415710998233,1256.4995027869008,1256.505298714852,None,1256.505298714852,None,space,1256.505298714852,None,3.1587,1257.2510048658587,None,0.6105174110271037,,,,,,,DEC004,001,2022_May_18_1431,2-25_cond_decay_EYE-try,2021.2.3,164.97306459079215,
right,1.0,0.75,0,2,0,2,0,0,0,0,0,1,6,16,7,,,,,,,,,,,,,,,5s,1258.2992354708258,1259.2999660009518,1259.2937895660289,None,1260.2877668710425,1264.802875937894,1260.2877668710425,1264.802875937894,1264.802875937894,None,1264.802875937894,None,space,1264.802875937894,None,4.5128,1265.240648639854,None,0.3049392809625715,,,,,,,DEC004,001,2022_May_18_1431,2-25_cond_decay_EYE-try,2021.2.3,164.97306459079215,
right,1.0,0.75,0,2,0,2,0,0,0,0,0,1,7,17,0,,,,,,,,,,,,,,,5s,1266.2934721189085,1267.2937808588613,1267.287501473911,None,1268.2868948630057,1271.1487862518989,1268.2868948630057,1271.1487862518989,1271.1429017828777,None,1271.1429017828777,None,space,1271.1429017828777,None,2.8566,1271.6686125479173,None,0.3889152240008116,,,,,,,DEC004,001,2022_May_18_1431,2-25_cond_decay_EYE-try,2021.2.3,164.97306459079215,
right,1.0,0.75,0,2,0,2,0,0,0,0,0,1,8,18,1,,,,,,,,,,,,,,,5s,1272.7299326569773,1273.7291707280092,1273.7177059848327,None,1274.7176277658436,1277.7595708968583,1274.7176277658436,1277.7595708968583,1277.7595708968583,None,1277.7595708968583,None,None,1277.7595708968583,None,3.0406,1278.887530006934,None,,,,,,,,DEC004,001,2022_May_18_1431,2-25_cond_decay_EYE-try,2021.2.3,164.97306459079215,
left,1.0,0.75,1,2,0,2,0,0,0,0,0,1,9,19,6,,,,,,,,,,,,,,,5s,1279.9351542419754,1280.9353523969185,1280.9230449970346,None,1281.9233508759644,1286.742074840935,1281.9233508759644,1286.742074840935,1286.742074840935,None,1286.742074840935,None,space,1286.742074840935,None,4.8168,1287.2766422110144,None,0.3977398199494928,,,,,,,DEC004,001,2022_May_18_1431,2-25_cond_decay_EYE-try,2021.2.3,164.97306459079215,
,,,,2,0,2,0,0,0,0,0,,,,,,,,,,,,,,,,,,,,,,,,,,,,,,,,,,,,,,,,,,,,,DEC004,001,2022_May_18_1431,2-25_cond_decay_EYE-try,2021.2.3,164.97306459079215,
left,0.75,1.0,0,2,0,2,0,1,0,1,0,0,0,0,2,,,,,,,,,1288.1615158389322,None,1288.1615158389322,None,1288.1615158389322,None,3s,1290.0993385869078,1291.099691015901,1291.0868102519307,None,1292.0870227860287,1293.3542339080013,1292.0870227860287,1293.3542339080013,1293.3542339080013,None,1293.3542339080013,None,space,1293.3542339080013,None,1.2661,1293.8139254618436,None,0.3215791620314121,,,,,,,DEC004,001,2022_May_18_1431,2-25_cond_decay_EYE-try,2021.2.3,164.97306459079215,
left,0.75,1.0,0,2,0,2,0,1,0,1,0,0,1,1,9,,,,,,,,,,,,,,,3s,1294.8684712050017,1295.8685609649401,1295.8634456389118,None,1296.8623062979896,1297.2381314858794,1296.8623062979896,1297.2381314858794,1297.2381314858794,None,1297.2381314858794,None,space,1297.2381314858794,None,0.3769,1297.7479726988822,None,0.37368736206553876,,,,,,,DEC004,001,2022_May_18_1431,2-25_cond_decay_EYE-try,2021.2.3,164.97306459079215,
left,0.75,1.0,0,2,0,2,0,1,0,1,0,0,2,2,8,,,,,,,,,,,,,,,3s,1298.795532526914,1299.796164575033,1299.7833793028258,None,1300.7843422088772,1302.1730642470066,1300.7843422088772,1302.1730642470066,1302.1670731608756,None,1302.1670731608756,None,space,1302.1670731608756,None,1.3848,1302.7490588158835,None,0.45274150907061994,,,,,,,DEC004,001,2022_May_18_1431,2-25_cond_decay_EYE-try,2021.2.3,164.97306459079215,
left,0.75,1.0,0,2,0,2,0,1,0,1,0,0,3,3,1,,,,,,,,,,,,,,,3s,1303.8014907019679,1304.80238589691,1304.7963300228585,None,1305.796363452915,1306.735265414929,1305.796363452915,1306.735265414929,1306.735265414929,None,1306.735265414929,None,space,1306.735265414929,None,0.937,1307.2923705040012,None,0.420538887148723,,,,,,,DEC004,001,2022_May_18_1431,2-25_cond_decay_EYE-try,2021.2.3,164.97306459079215,
right,1.0,0.75,0,2,0,2,0,1,0,1,0,0,4,4,5,,,,,,,,,,,,,,,3s,1308.353142285021,1309.353200054029,1309.3471294068731,None,1310.346872973023,1312.401362273842,1310.346872973023,1312.401362273842,1312.401362273842,None,1312.401362273842,None,space,1312.401362273842,None,2.0535,1312.8984540798701,None,0.36245205299928784,,,,,,,DEC004,001,2022_May_18_1431,2-25_cond_decay_EYE-try,2021.2.3,164.97306459079215,
left,1.0,0.75,1,2,0,2,0,1,0,1,0,0,5,5,6,,,,,,,,,,,,,,,3s,1313.9537657098845,1314.9528405189048,1314.9416749868542,None,1315.9411423460115,1318.596184834838,1315.9411423460115,1318.596184834838,1318.601811714936,None,1318.601811714936,None,space,1318.601811714936,None,2.6558,1319.0627091010101,None,0.33001432195305824,,,,,,,DEC004,001,2022_May_18_1431,2-25_cond_decay_EYE-try,2021.2.3,164.97306459079215,
right,1.0,0.75,0,2,0,2,0,1,0,1,0,0,6,6,4,,,,,,,,,,,,,,,3s,1320.1225722529925,1321.1231445069425,1321.1163673240226,None,1322.1170109948143,1322.455966210924,1322.1170109948143,1322.455966210924,1322.455966210924,None,1322.455966210924,None,None,1322.455966210924,None,0.3402,1323.5833495978732,None,,,,,,,,DEC004,001,2022_May_18_1431,2-25_cond_decay_EYE-try,2021.2.3,164.97306459079215,
right,0.75,1.0,1,2,0,2,0,1,0,1,0,0,7,7,3,,,,,,,,,,,,,,,3s,1324.6319015969057,1325.632079192903,1325.6198744529393,None,1326.6204269619193,1329.0193338638637,1326.6204269619193,1329.0193338638637,1329.0193338638637,None,1329.0193338638637,None,space,1329.0193338638637,None,2.3978,1329.5238793499302,None,0.3684956729412079,,,,,,,DEC004,001,2022_May_18_1431,2-25_cond_decay_EYE-try,2021.2.3,164.97306459079215,
left,0.75,1.0,0,2,0,2,0,1,0,1,0,0,8,8,7,,,,,,,,,,,,,,,3s,1330.5711008659564,1331.5715849399567,1331.5608334799763,None,1332.5594560748432,1333.934572519036,1332.5594560748432,1333.934572519036,1333.934572519036,None,1333.934572519036,None,space,1333.934572519036,None,1.3717,1334.4149811749812,None,0.34923483384773135,,,,,,,DEC004,001,2022_May_18_1431,2-25_cond_decay_EYE-try,2021.2.3,164.97306459079215,
right,1.0,0.75,0,2,0,2,0,1,0,1,0,0,9,9,0,,,,,,,,,,,,,,,3s,1335.4700076249428,1336.4738387609832,1336.4620129019022,None,1337.4630222308915,1339.8191648868378,1337.4630222308915,1339.8191648868378,1339.8191648868378,None,1339.8191648868378,None,space,1339.8191648868378,None,2.3539,1340.3648268268444,None,0.40865147789008915,,,,,,,DEC004,001,2022_May_18_1431,2-25_cond_decay_EYE-try,2021.2.3,164.97306459079215,
left,0.75,1.0,0,2,0,2,0,1,0,1,0,1,0,10,9,,,,,,,,,,,,,,,3s,1341.4252604430076,1342.4258450909983,1342.4134854630101,None,1343.4138455009088,1344.1225952098612,1343.4138455009088,1344.1225952098612,1344.1225952098612,None,1344.1225952098612,None,space,1344.1225952098612,None,0.7082,1344.691979788011,None,0.4332066560164094,,,,,,,DEC004,001,2022_May_18_1431,2-25_cond_decay_EYE-try,2021.2.3,164.97306459079215,
right,1.0,0.75,0,2,0,2,0,1,0,1,0,1,1,11,2,,,,,,,,,,,,,,,3s,1345.742203862872,1346.746585327899,1346.7404041008558,None,1347.7406521190424,1349.5783980449196,1347.7406521190424,1349.5783980449196,1349.5723114858847,None,1349.5723114858847,None,space,1349.5723114858847,None,1.8355,1350.085872639902,None,0.3755298969335854,,,,,,,DEC004,001,2022_May_18_1431,2-25_cond_decay_EYE-try,2021.2.3,164.97306459079215,
right,1.0,0.75,0,2,0,2,0,1,0,1,0,1,2,12,0,,,,,,,,,,,,,,,3s,1351.1412502878811,1352.1412293449976,1352.1352592769545,None,1353.1345518408343,1355.8692585979588,1353.1345518408343,1355.8692585979588,1355.8630995049607,None,1355.8630995049607,None,space,1355.8630995049607,None,2.7289,1356.2926304519642,None,0.2927329980302602,,,,,,,DEC004,001,2022_May_18_1431,2-25_cond_decay_EYE-try,2021.2.3,164.97306459079215,
left,1.0,0.75,1,2,0,2,0,1,0,1,0,1,3,13,6,,,,,,,,,,,,,,,3s,1357.3527251568157,1358.3525977528188,1358.3415174030233,None,1359.3406823179685,1361.9100617978256,1359.3406823179685,1361.9100617978256,1361.9100617978256,None,1361.9100617978256,None,space,1361.9100617978256,None,2.5689,1362.3705414929427,None,0.3257529360707849,,,,,,,DEC004,001,2022_May_18_1431,2-25_cond_decay_EYE-try,2021.2.3,164.97306459079215,
right,1.0,0.75,0,2,0,2,0,1,0,1,0,1,4,14,5,,,,,,,,,,,,,,,3s,1363.420840794919,1364.4196447879076,1364.4137264718302,None,1365.4138653618284,1366.8073119870387,1365.4138653618284,1366.8073119870387,1366.8073119870387,None,1366.8073119870387,None,space,1366.8073119870387,None,1.3906,1367.287814388983,None,0.3484936549793929,,,,,,,DEC004,001,2022_May_18_1431,2-25_cond_decay_EYE-try,2021.2.3,164.97306459079215,
left,0.75,1.0,0,2,0,2,0,1,0,1,0,1,5,15,1,,,,,,,,,,,,,,,3s,1368.3411616010126,1369.3409782238305,1369.3288453039713,None,1370.3343795668334,1371.6677443119697,1370.3343795668334,1371.6677443119697,1371.6616187270265,None,1371.6616187270265,None,space,1371.6616187270265,None,1.327,1372.1588778309524,None,0.3662037600297481,,,,,,,DEC004,001,2022_May_18_1431,2-25_cond_decay_EYE-try,2021.2.3,164.97306459079215,
left,0.75,1.0,0,2,0,2,0,1,0,1,0,1,6,16,7,,,,,,,,,,,,,,,3s,1373.2133087688126,1374.2137354968581,1374.207483293023,None,1375.2073109408375,1375.4326411120128,1375.2073109408375,1375.4326411120128,1375.426457366906,None,1375.426457366906,None,space,1375.426457366906,None,0.223,1376.0738562168553,None,0.513368088984862,,,,,,,DEC004,001,2022_May_18_1431,2-25_cond_decay_EYE-try,2021.2.3,164.97306459079215,
right,0.75,1.0,1,2,0,2,0,1,0,1,0,1,7,17,3,,,,,,,,,,,,,,,3s,1377.128432950005,1378.1280851019546,1378.1161639220081,None,1379.1217964298557,1379.6679030158557,1379.1217964298557,1379.6679030158557,1379.6679030158557,None,1379.6679030158557,None,space,1379.6679030158557,None,0.5454,1380.1774129669648,None,0.37592465803027153,,,,,,,DEC004,001,2022_May_18_1431,2-25_cond_decay_EYE-try,2021.2.3,164.97306459079215,
right,1.0,0.75,0,2,0,2,0,1,0,1,0,1,8,18,4,,,,,,,,,,,,,,,3s,1381.2248424289282,1382.2250617928803,1382.2188936260063,None,1383.2192229030188,1384.577833191026,1383.2192229030188,1384.577833191026,1384.5717331818305,None,1384.5717331818305,None,space,1384.5717331818305,None,1.3551,1385.086604581913,None,0.3840933497995138,,,,,,,DEC004,001,2022_May_18_1431,2-25_cond_decay_EYE-try,2021.2.3,164.97306459079215,
left,0.75,1.0,0,2,0,2,0,1,0,1,0,1,9,19,8,,,,,,,,,,,,,,,3s,1386.1461230670102,1387.1462654278148,1387.1402630358934,None,1388.1407583199907,1390.9101929138415,1388.1407583199907,1390.9101929138415,1390.9042722189333,None,1390.9042722189333,None,space,1390.9042722189333,None,2.7608,1391.389627482975,None,0.34755343617871404,,,,,,,DEC004,001,2022_May_18_1431,2-25_cond_decay_EYE-try,2021.2.3,164.97306459079215,
,,,,2,0,2,0,1,0,1,0,,,,,,,,,,,,,,,,,,,,,,,,,,,,,,,,,,,,,,,,,,,,,DEC004,001,2022_May_18_1431,2-25_cond_decay_EYE-try,2021.2.3,164.97306459079215,
right,1.0,0.75,0,2,0,2,0,2,0,2,0,0,0,0,7,,,,,,,,,1392.2854751220439,None,1392.2854751220439,None,1392.2854751220439,None,10s,1393.655244315043,1394.6548846659716,1394.6488032320049,None,1395.6489250620361,1403.5094244009815,1395.6489250620361,1403.5094244009815,1403.5094244009815,None,1403.5094244009815,None,space,1403.5094244009815,None,7.8601,1403.9901637879666,None,0.34239240805618465,,,,,,,DEC004,001,2022_May_18_1431,2-25_cond_decay_EYE-try,2021.2.3,164.97306459079215,
right,1.0,0.75,0,2,0,2,0,2,0,2,0,0,1,1,9,,,,,,,,,,,,,,,10s,1405.0435529819224,1406.0429021429736,1406.0369133970235,None,1407.0370751158334,1411.5833441698924,1407.0370751158334,1411.5833441698924,1411.577253049938,None,1411.577253049938,None,space,1411.577253049938,None,4.5408,1412.1284188299906,None,0.41857835301198065,,,,,,,DEC004,001,2022_May_18_1431,2-25_cond_decay_EYE-try,2021.2.3,164.97306459079215,
right,1.0,0.75,0,2,0,2,0,2,0,2,0,0,2,2,2,,,,,,,,,,,,,,,10s,1413.182009037817,1414.1818622129504,1414.1701106629334,None,1415.1696827828418,1423.6917156628333,1415.1696827828418,1423.6917156628333,1423.6917156628333,None,1423.6917156628333,None,space,1423.6917156628333,None,8.5187,1424.2371077579446,None,0.4081130630802363,,,,,,,DEC004,001,2022_May_18_1431,2-25_cond_decay_EYE-try,2021.2.3,164.97306459079215,
left,0.75,1.0,0,2,0,2,0,2,0,2,0,0,3,3,3,,,,,,,,,,,,,,,10s,1425.2847807409707,1426.2857754498255,1426.2727991449647,None,1427.2733764559962,1430.4430382258724,1427.2733764559962,1430.4430382258724,1430.4430382258724,None,1430.4430382258724,None,None,1430.4430382258724,None,3.1655,1431.57007707702,None,,,,,,,,DEC004,001,2022_May_18_1431,2-25_cond_decay_EYE-try,2021.2.3,164.97306459079215,
left,0.75,1.0,0,2,0,2,0,2,0,2,0,0,4,4,0,,,,,,,,,,,,,,,10s,1432.6196157690138,1433.6247237049975,1433.6120966989547,None,1434.6125800898299,1435.151302703889,1434.6125800898299,1435.151302703889,1435.151302703889,None,1435.151302703889,None,space,1435.151302703889,None,0.5393,1435.7713374418672,None,0.48452090192586184,,,,,,,DEC004,001,2022_May_18_1431,2-25_cond_decay_EYE-try,2021.2.3,164.97306459079215,
left,0.75,1.0,0,2,0,2,0,2,0,2,0,0,5,5,5,,,,,,,,,,,,,,,10s,1436.8189815259539,1437.818456694018,1437.8122604268137,None,1438.8125108589884,1442.9697023190092,1438.8125108589884,1442.9697023190092,1442.9697023190092,None,1442.9697023190092,None,space,1442.9697023190092,None,4.1572,1443.4546202558558,None,0.3461227030493319,,,,,,,DEC004,001,2022_May_18_1431,2-25_cond_decay_EYE-try,2021.2.3,164.97306459079215,
right,0.75,1.0,1,2,0,2,0,2,0,2,0,0,6,6,6,,,,,,,,,,,,,,,10s,1444.5037976659369,1445.503794456832,1445.491234628018,None,1446.4910548729822,1455.33919831994,1446.4910548729822,1455.33919831994,1455.33919831994,None,1455.33919831994,None,space,1455.33919831994,None,8.8467,1455.8790933098644,None,0.40063646994531155,,,,,,,DEC004,001,2022_May_18_1431,2-25_cond_decay_EYE-try,2021.2.3,164.97306459079215,
left,1.0,0.75,1,2,0,2,0,2,0,2,0,0,7,7,4,,,,,,,,,,,,,,,10s,1456.939050226938,1457.9389822548255,1457.9336688870098,None,1458.93307318585,1461.4313421710394,1458.93307318585,1461.4313421710394,1461.4253175568301,None,1461.4253175568301,None,space,1461.4253175568301,None,2.4928,1461.9883505669422,None,0.4265239080414176,,,,,,,DEC004,001,2022_May_18_1431,2-25_cond_decay_EYE-try,2021.2.3,164.97306459079215,
right,1.0,0.75,0,2,0,2,0,2,0,2,0,0,8,8,8,,,,,,,,,,,,,,,10s,1463.0480783989187,1464.0488744929899,1464.0427157699596,None,1465.0418666228652,1465.8846227638423,1465.0418666228652,1465.8846227638423,1465.8846227638423,None,1465.8846227638423,None,space,1465.8846227638423,None,0.8442,1466.405395525042,None,0.3832152478862554,,,,,,,DEC004,001,2022_May_18_1431,2-25_cond_decay_EYE-try,2021.2.3,164.97306459079215,
left,0.75,1.0,0,2,0,2,0,2,0,2,0,0,9,9,1,,,,,,,,,,,,,,,10s,1467.460121260956,1468.4606933880132,1468.447993424954,None,1469.4486288428307,1473.5028912278358,1469.4486288428307,1473.5028912278358,1473.5028912278358,None,1473.5028912278358,None,space,1473.5028912278358,None,4.0548,1474.031895553926,None,0.3969465878326446,,,,,,,DEC004,001,2022_May_18_1431,2-25_cond_decay_EYE-try,2021.2.3,164.97306459079215,
left,1.0,0.75,1,2,0,2,0,2,0,2,0,1,0,10,4,,,,,,,,,,,,,,,10s,1475.0790647438262,1476.0781047358178,1476.0730131908786,None,1477.0720811099745,1485.7588394479826,1477.0720811099745,1485.7588394479826,1485.7588394479826,None,1485.7588394479826,None,space,1485.7588394479826,None,8.6837,1486.2785341239069,None,0.38099728780798614,,,,,,,DEC004,001,2022_May_18_1431,2-25_cond_decay_EYE-try,2021.2.3,164.97306459079215,
left,0.75,1.0,0,2,0,2,0,2,0,2,0,1,1,11,1,,,,,,,,,,,,,,,10s,1487.3279568618163,1488.3268009359017,1488.3209075350314,None,1489.320384115912,1496.5444957390428,1489.320384115912,1496.5444957390428,1496.5444957390428,None,1496.5444957390428,None,space,1496.5444957390428,None,7.2248,1497.0908797648735,None,0.4113509461749345,,,,,,,DEC004,001,2022_May_18_1431,2-25_cond_decay_EYE-try,2021.2.3,164.97306459079215,
right,0.75,1.0,1,2,0,2,0,2,0,2,0,1,2,12,6,,,,,,,,,,,,,,,10s,1498.1453631129116,1499.144455080852,1499.138760998845,None,1500.1384655740112,1506.3806164418347,1500.1384655740112,1506.3806164418347,1506.3806164418347,None,1506.3806164418347,None,space,1506.3806164418347,None,6.2425,1506.9874171579722,None,0.4632244349922985,,,,,,,DEC004,001,2022_May_18_1431,2-25_cond_decay_EYE-try,2021.2.3,164.97306459079215,
left,0.75,1.0,0,2,0,2,0,2,0,2,0,1,3,13,0,,,,,,,,,,,,,,,10s,1508.0414880069438,1509.0413361829706,1509.0293925548904,None,1510.0294064439368,1512.9569345929194,1510.0294064439368,1512.9569345929194,1512.9569345929194,None,1512.9569345929194,None,space,1512.9569345929194,None,2.9281,1513.5036972749513,None,0.41490279301069677,,,,,,,DEC004,001,2022_May_18_1431,2-25_cond_decay_EYE-try,2021.2.3,164.97306459079215,
right,1.0,0.75,0,2,0,2,0,2,0,2,0,1,4,14,2,,,,,,,,,,,,,,,10s,1514.5571946350392,1515.5571355379652,1515.5509994679596,None,1516.5448043218348,1518.1683630358893,1516.5448043218348,1518.1683630358893,1518.1683630358893,None,1518.1683630358893,None,space,1518.1683630358893,None,1.6198,1518.74545317702,None,0.44347101100720465,,,,,,,DEC004,001,2022_May_18_1431,2-25_cond_decay_EYE-try,2021.2.3,164.97306459079215,
right,1.0,0.75,0,2,0,2,0,2,0,2,0,1,5,15,9,,,,,,,,,,,,,,,10s,1519.8000775920227,1520.7995114878286,1520.7935263889376,None,1521.792939316947,1525.8173761519138,1521.792939316947,1525.8173761519138,1525.8173761519138,None,1525.8173761519138,None,space,1525.8173761519138,None,4.0233,1526.333502010908,None,0.3864760808646679,,,,,,,DEC004,001,2022_May_18_1431,2-25_cond_decay_EYE-try,2021.2.3,164.97306459079215,
right,1.0,0.75,0,2,0,2,0,2,0,2,0,1,6,16,7,,,,,,,,,,,,,,,10s,1527.3864551880397,1528.3873819489963,1528.3753206999972,None,1529.3744372329675,1535.1256785369478,1529.3744372329675,1535.1256785369478,1535.1256785369478,None,1535.1256785369478,None,space,1535.1256785369478,None,5.7523,1535.6349314858671,None,0.3741586080286652,,,,,,,DEC004,001,2022_May_18_1431,2-25_cond_decay_EYE-try,2021.2.3,164.97306459079215,
left,0.75,1.0,0,2,0,2,0,2,0,2,0,1,7,17,3,,,,,,,,,,,,,,,10s,1536.6899205949157,1537.6894479698967,1537.6836179208476,None,1538.6840477949008,1542.9377566550393,1538.6840477949008,1542.9377566550393,1542.9377566550393,None,1542.9377566550393,None,space,1542.9377566550393,None,4.2543,1543.4112078340258,None,0.33809908013790846,,,,,,,DEC004,001,2022_May_18_1431,2-25_cond_decay_EYE-try,2021.2.3,164.97306459079215,
right,1.0,0.75,0,2,0,2,0,2,0,2,0,1,8,18,8,,,,,,,,,,,,,,,10s,1544.465187403839,1545.4659945738968,1545.459789571818,None,1546.4597845789976,1554.6062423228286,1546.4597845789976,1554.6062423228286,1554.6003633448854,None,1554.6003633448854,None,space,1554.6003633448854,None,8.1429,1555.1623236008454,None,0.4274943091440946,,,,,,,DEC004,001,2022_May_18_1431,2-25_cond_decay_EYE-try,2021.2.3,164.97306459079215,
left,0.75,1.0,0,2,0,2,0,2,0,2,0,1,9,19,5,,,,,,,,,,,,,,,10s,1556.2103320658207,1557.211016064044,1557.1989047289826,None,1558.1983957849443,1561.6283794159535,1558.1983957849443,1561.6283794159535,1561.6283794159535,None,1561.6283794159535,None,space,1561.6283794159535,None,3.429,1562.218591621844,None,0.4554794819559902,,,,,,,DEC004,001,2022_May_18_1431,2-25_cond_decay_EYE-try,2021.2.3,164.97306459079215,
,,,,2,0,2,0,2,0,2,0,,,,,,,,,,,,,,,,,,,,,,,,,,,,,,,,,,,,,,,,,,,,,DEC004,001,2022_May_18_1431,2-25_cond_decay_EYE-try,2021.2.3,164.97306459079215,
right,1.0,0.75,0,2,0,2,0,3,0,3,0,0,0,0,7,,,,,,,,,1563.1094505810179,None,1563.1094505810179,None,1563.1094505810179,None,1s,1563.914976225933,1564.919844913995,1564.9072041348554,None,1565.9072606139816,1566.810877418844,1565.9072606139816,1566.810877418844,1566.810877418844,None,1566.810877418844,None,space,1566.810877418844,None,0.9032,1567.224009033991,None,0.27297772001475096,,,,,,,DEC004,001,2022_May_18_1431,2-25_cond_decay_EYE-try,2021.2.3,164.97306459079215,
left,0.75,1.0,0,2,0,2,0,3,0,3,0,0,1,1,4,,,,,,,,,,,,,,,1s,1568.2838580969255,1569.2828165888786,1569.2708035940304,None,1570.2710129478946,1570.6769562310074,1570.2710129478946,1570.6769562310074,1570.6769562310074,None,1570.6769562310074,None,space,1570.6769562310074,None,0.4063,1571.1808141260408,None,0.3668989341240376,,,,,,,DEC004,001,2022_May_18_1431,2-25_cond_decay_EYE-try,2021.2.3,164.97306459079215,
right,1.0,0.75,0,2,0,2,0,3,0,3,0,0,2,2,2,,,,,,,,,,,,,,,1s,1572.2355469509494,1573.2346025588922,1573.2223524530418,None,1574.2226333918516,1574.8712753679138,1574.2226333918516,1574.8712753679138,1574.8712753679138,None,1574.8712753679138,None,space,1574.8712753679138,None,0.6452,1575.26686655893,None,0.2605733280070126,,,,,,,DEC004,001,2022_May_18_1431,2-25_cond_decay_EYE-try,2021.2.3,164.97306459079215,
left,1.0,0.75,1,2,0,2,0,3,0,3,0,0,3,3,1,,,,,,,,,,,,,,,1s,1576.3259894140065,1577.3257699320093,1577.3199925278313,None,1578.3198760629166,1578.7084297328256,1578.3198760629166,1578.7084297328256,1578.7025268909056,None,1578.7025268909056,None,space,1578.7025268909056,None,0.3857,1579.126729413867,None,0.2933245829772204,,,,,,,DEC004,001,2022_May_18_1431,2-25_cond_decay_EYE-try,2021.2.3,164.97306459079215,
right,1.0,0.75,0,2,0,2,0,3,0,3,0,0,4,4,8,,,,,,,,,,,,,,,1s,1580.186056301929,1581.186700736871,1581.1804422340356,None,1582.1805159340147,1582.6895944359712,1582.1805159340147,1582.6895944359712,1582.6895944359712,None,1582.6895944359712,None,space,1582.6895944359712,None,0.5096,1583.0966412669513,None,0.27424478786997497,,,,,,,DEC004,001,2022_May_18_1431,2-25_cond_decay_EYE-try,2021.2.3,164.97306459079215,
right,1.0,0.75,0,2,0,2,0,3,0,3,0,0,5,5,6,,,,,,,,,,,,,,,1s,1584.1501973888371,1585.1493128859438,1585.144081135979,None,1586.1437146968674,1586.5374561068602,1586.1437146968674,1586.5374561068602,1586.5374561068602,None,1586.5374561068602,None,space,1586.5374561068602,None,0.3943,1586.9311317659449,None,0.2584049520082772,,,,,,,DEC004,001,2022_May_18_1431,2-25_cond_decay_EYE-try,2021.2.3,164.97306459079215,
left,0.75,1.0,0,2,0,2,0,3,0,3,0,0,6,6,3,,,,,,,,,,,,,,,1s,1587.992509533884,1588.9920851129573,1588.9801003609318,None,1589.9802866349928,1590.416043909965,1589.9802866349928,1590.416043909965,1590.416043909965,None,1590.416043909965,None,space,1590.416043909965,None,0.434,1590.8039011738729,None,0.25181179912760854,,,,,,,DEC004,001,2022_May_18_1431,2-25_cond_decay_EYE-try,2021.2.3,164.97306459079215,
right,0.75,1.0,1,2,0,2,0,3,0,3,0,0,7,7,9,,,,,,,,,,,,,,,1s,1591.864995356882,1592.864931373857,1592.8590230909176,None,1593.8590867219027,1594.0224859269802,1593.8590867219027,1594.0224859269802,1594.0224859269802,None,1594.0224859269802,None,space,1594.0224859269802,None,0.1629,1594.569580029929,None,0.4133670029696077,,,,,,,DEC004,001,2022_May_18_1431,2-25_cond_decay_EYE-try,2021.2.3,164.97306459079215,
right,1.0,0.75,0,2,0,2,0,3,0,3,0,0,8,8,0,,,,,,,,,,,,,,,1s,1595.623711436987,1596.6280661488418,1596.6218776269816,None,1597.6219588958193,1598.2953883549199,1597.6219588958193,1598.2953883549199,1598.2953883549199,None,1598.2953883549199,None,space,1598.2953883549199,None,0.673,1598.7251585449558,None,0.2924629310145974,,,,,,,DEC004,001,2022_May_18_1431,2-25_cond_decay_EYE-try,2021.2.3,164.97306459079215,
left,0.75,1.0,0,2,0,2,0,3,0,3,0,0,9,9,5,,,,,,,,,,,,,,,1s,1599.7861066840123,1600.7863407570403,1600.77363740094,None,1601.7737279848661,1602.555192810949,1601.7737279848661,1602.555192810949,1602.555192810949,None,1602.555192810949,None,space,1602.555192810949,None,0.7801,1603.0041249038186,None,0.3126650720369071,,,,,,,DEC004,001,2022_May_18_1431,2-25_cond_decay_EYE-try,2021.2.3,164.97306459079215,
right,0.75,1.0,1,2,0,2,0,3,0,3,0,1,0,10,9,,,,,,,,,,,,,,,1s,1604.0599405379035,1605.0642896008212,1605.059083445929,None,1606.058837088989,1606.835254153004,1606.058837088989,1606.835254153004,1606.8293744688854,None,1606.8293744688854,None,space,1606.8293744688854,None,0.774,1607.3073498590384,None,0.3424806180410087,,,,,,,DEC004,001,2022_May_18_1431,2-25_cond_decay_EYE-try,2021.2.3,164.97306459079215,
left,0.75,1.0,0,2,0,2,0,3,0,3,0,1,1,11,5,,,,,,,,,,,,,,,1s,1608.3627023720182,1609.3616805670317,1609.3559711659327,None,1610.3554643569514,1610.7376753089484,1610.3554643569514,1610.7376753089484,1610.7319902679883,None,1610.7319902679883,None,space,1610.7319902679883,None,0.3778,1611.175126631977,None,0.31186669995076954,,,,,,,DEC004,001,2022_May_18_1431,2-25_cond_decay_EYE-try,2021.2.3,164.97306459079215,
left,0.75,1.0,0,2,0,2,0,3,0,3,0,1,2,12,4,,,,,,,,,,,,,,,1s,1612.2281966218725,1613.2278331378475,1613.216706305975,None,1614.216653718846,1614.5670033169445,1614.216653718846,1614.5670033169445,1614.5670033169445,None,1614.5670033169445,None,space,1614.5670033169445,None,0.3503,1615.0042691628914,None,0.3008431720081717,,,,,,,DEC004,001,2022_May_18_1431,2-25_cond_decay_EYE-try,2021.2.3,164.97306459079215,
left,1.0,0.75,1,2,0,2,0,3,0,3,0,1,3,13,1,,,,,,,,,,,,,,,1s,1616.0579651049338,1617.058624645928,1617.0525384529028,None,1618.0526182078756,1618.3808006169274,1618.0526182078756,1618.3808006169274,1618.3751246549655,None,1618.3751246549655,None,space,1618.3751246549655,None,0.3225,1618.9082114358898,None,0.40472777700051665,,,,,,,DEC004,001,2022_May_18_1431,2-25_cond_decay_EYE-try,2021.2.3,164.97306459079215,
left,0.75,1.0,0,2,0,2,0,3,0,3,0,1,4,14,3,,,,,,,,,,,,,,,1s,1619.961997256847,1620.9615313878749,1620.9553950109985,None,1621.9552897249814,1622.5065673689824,1621.9552897249814,1622.5065673689824,1622.5065673689824,None,1622.5065673689824,None,space,1622.5065673689824,None,0.5497,1622.924703012919,None,0.28126225993037224,,,,,,,DEC004,001,2022_May_18_1431,2-25_cond_decay_EYE-try,2021.2.3,164.97306459079215,
right,1.0,0.75,0,2,0,2,0,3,0,3,0,1,5,15,2,,,,,,,,,,,,,,,1s,1623.9812129028141,1624.9859929378144,1624.9799960928503,None,1625.9793435528409,1626.8959181269165,1625.9793435528409,1626.8959181269165,1626.8899350119755,None,1626.8899350119755,None,space,1626.8899350119755,None,0.9113,1627.3071269928478,None,0.281934300204739,,,,,,,DEC004,001,2022_May_18_1431,2-25_cond_decay_EYE-try,2021.2.3,164.97306459079215,
left,0.75,1.0,0,2,0,2,0,3,0,3,0,1,6,16,7,,,,,,,,,,,,,,,1s,1628.3612615829334,1629.3618552838452,1629.3558312170208,None,1630.349093260942,1630.5551991038956,1630.349093260942,1630.5551991038956,1630.5551991038956,None,1630.5551991038956,None,space,1630.5551991038956,None,0.2053,1631.1373915569857,None,0.44865869195200503,,,,,,,DEC004,001,2022_May_18_1431,2-25_cond_decay_EYE-try,2021.2.3,164.97306459079215,
