attn_cue,left_ob,right_ob,congruent,runs.thisRepN,runs.thisTrialN,runs.thisN,runs.thisIndex,blocks.thisRepN,blocks.thisTrialN,blocks.thisN,blocks.thisIndex,trials.thisRepN,trials.thisTrialN,trials.thisN,trials.thisIndex,welcome.started,welcome.stopped,text_2.started,text_2.stopped,init_key_resp.keys,init_key_resp.rt,init_key_resp.started,init_key_resp.stopped,text_3.started,text_3.stopped,text_4.started,text_4.stopped,text_5.started,text_5.stopped,block_num,texter.started,texter.stopped,cross.started,cross.stopped,left_star.started,left_star.stopped,right_star.started,right_star.stopped,left_2.started,left_2.stopped,right_2.started,right_2.stopped,key_resp.keys,key_resp.started,key_resp.stopped,Rand Tim,text.started,text.stopped,key_resp.rt,end.started,end.stopped,text_6.started,text_6.stopped,text_7.started,text_7.stopped,participant,session,date,expName,psychopyVersion,frameRate,
,,,,,,,,,,,,,,,,319.3517476399429,None,319.3517476399429,None,space,1.9788693082518876,319.3517476399429,None,,,,,,,,,,,,,,,,,,,,,,,,,,,,,,,,,DEC024,001,2022_Dec_02_1535,2-25_cond_decay_EYE-try,2021.2.3,119.84302726361179,
right,1.0,0.75,0,0,0,0,0,0,0,0,0,0,0,0,6,,,,,,,,,321.35151865379885,None,321.35151865379885,None,321.35151865379885,None,1s,324.7851228909567,325.7863762001507,325.77769646188244,None,326.7774525289424,326.93574372213334,326.7774525289424,326.93574372213334,326.93574372213334,None,326.93574372213334,None,None,326.93574372213334,None,0.1581,328.06824329681695,None,,,,,,,,DEC024,001,2022_Dec_02_1535,2-25_cond_decay_EYE-try,2021.2.3,119.84302726361179,
left,0.75,1.0,0,0,0,0,0,0,0,0,0,0,1,1,9,,,,,,,,,,,,,,,1s,329.15207358216867,330.1531660761684,330.13562376378104,None,331.1356230219826,332.03637847909704,331.1356230219826,332.03637847909704,332.03637847909704,None,332.03637847909704,None,space,332.03637847909704,None,0.8995,332.52603985881433,None,0.35900686495006084,,,,,,,DEC024,001,2022_Dec_02_1535,2-25_cond_decay_EYE-try,2021.2.3,119.84302726361179,
left,0.75,1.0,0,0,0,0,0,0,0,0,0,0,2,2,8,,,,,,,,,,,,,,,1s,333.6187583701685,334.619671091903,334.6107224961743,None,335.611624292098,335.94447773415595,335.611624292098,335.94447773415595,335.9367411509156,None,335.9367411509156,None,space,335.9367411509156,None,0.3285,336.443517588079,None,0.376859312877059,,,,,,,DEC024,001,2022_Dec_02_1535,2-25_cond_decay_EYE-try,2021.2.3,119.84302726361179,
left,0.75,1.0,0,0,0,0,0,0,0,0,0,0,3,3,1,,,,,,,,,,,,,,,1s,337.53457276988775,338.5367263648659,338.5275646201335,None,339.5277601168491,340.0448483917862,339.5277601168491,340.0448483917862,340.0362076610327,None,340.0362076610327,None,space,340.0362076610327,None,0.512,340.54460160201415,None,0.38395143998786807,,,,,,,DEC024,001,2022_Dec_02_1535,2-25_cond_decay_EYE-try,2021.2.3,119.84302726361179,
left,0.75,1.0,0,0,0,0,0,0,0,0,0,0,4,4,3,,,,,,,,,,,,,,,1s,341.64359931088984,342.64469091780484,342.63642410282046,None,343.6356939501129,343.8695308789611,343.6356939501129,343.8695308789611,343.86077652312815,None,343.86077652312815,None,space,343.86077652312815,None,0.2272,344.35256931884214,None,0.367363209836185,,,,,,,DEC024,001,2022_Dec_02_1535,2-25_cond_decay_EYE-try,2021.2.3,119.84302726361179,
right,0.75,1.0,1,0,0,0,0,0,0,0,0,0,5,5,0,,,,,,,,,,,,,,,1s,345.45320020476356,346.4534717509523,346.4441817891784,None,347.4448590069078,348.01965274475515,347.4448590069078,348.01965274475515,348.01965274475515,None,348.01965274475515,None,space,348.01965274475515,None,0.5702,348.5443915678188,None,0.4006789759732783,,,,,,,DEC024,001,2022_Dec_02_1535,2-25_cond_decay_EYE-try,2021.2.3,119.84302726361179,
left,1.0,0.75,1,0,0,0,0,0,0,0,0,0,6,6,4,,,,,,,,,,,,,,,1s,349.651686640922,350.6525868177414,350.63651987118647,None,351.6361983078532,352.1784361777827,351.6361983078532,352.1784361777827,352.1784361777827,None,352.1784361777827,None,space,352.1784361777827,None,0.5388,352.72831130214036,None,0.4257739670574665,,,,,,,DEC024,001,2022_Dec_02_1535,2-25_cond_decay_EYE-try,2021.2.3,119.84302726361179,
right,1.0,0.75,0,0,0,0,0,0,0,0,0,0,7,7,7,,,,,,,,,,,,,,,1s,353.83553494280204,354.8359287767671,354.82018435094506,None,355.81967265484855,356.61100030876696,355.81967265484855,356.61100030876696,356.61100030876696,None,356.61100030876696,None,space,356.61100030876696,None,0.7871,357.13637332385406,None,0.40102312806993723,,,,,,,DEC024,001,2022_Dec_02_1535,2-25_cond_decay_EYE-try,2021.2.3,119.84302726361179,
right,1.0,0.75,0,0,0,0,0,0,0,0,0,0,8,8,5,,,,,,,,,,,,,,,1s,358.22803035890684,359.22828480089083,359.220019062981,None,360.21929653873667,360.77810147497803,360.21929653873667,360.77810147497803,360.77810147497803,None,360.77810147497803,None,space,360.77810147497803,None,0.5572,361.2769474661909,None,0.3695443603210151,,,,,,,DEC024,001,2022_Dec_02_1535,2-25_cond_decay_EYE-try,2021.2.3,119.84302726361179,
right,1.0,0.75,0,0,0,0,0,0,0,0,0,0,9,9,2,,,,,,,,,,,,,,,1s,362.3616306227632,363.3619861169718,363.353379225824,None,364.3531997250393,364.91149907093495,364.3531997250393,364.91149907093495,364.91149907093495,None,364.91149907093495,None,space,364.91149907093495,None,0.5553,365.4518461599946,None,0.41129523795098066,,,,,,,DEC024,001,2022_Dec_02_1535,2-25_cond_decay_EYE-try,2021.2.3,119.84302726361179,
left,1.0,0.75,1,0,0,0,0,0,0,0,0,1,0,10,4,,,,,,,,,,,,,,,1s,366.5513634509407,367.55347644304857,367.53661157609895,None,368.5360864577815,369.40310504008085,368.5360864577815,369.40310504008085,369.40310504008085,None,369.40310504008085,None,space,369.40310504008085,None,0.8623,369.88492847187445,None,0.3526139659807086,,,,,,,DEC024,001,2022_Dec_02_1535,2-25_cond_decay_EYE-try,2021.2.3,119.84302726361179,
right,1.0,0.75,0,0,0,0,0,0,0,0,0,1,1,11,5,,,,,,,,,,,,,,,1s,370.977728926111,371.97829811507836,371.9701963160187,None,372.9695269688964,373.3282582038082,372.9695269688964,373.3282582038082,373.3282582038082,None,373.3282582038082,None,space,373.3282582038082,None,0.3589,373.8017082819715,None,0.3440298237837851,,,,,,,DEC024,001,2022_Dec_02_1535,2-25_cond_decay_EYE-try,2021.2.3,119.84302726361179,
left,0.75,1.0,0,0,0,0,0,0,0,0,0,1,2,12,3,,,,,,,,,,,,,,,1s,374.9024447789416,375.9032279518433,375.88629978708923,None,376.8862683637999,377.6621657051146,376.8862683637999,377.6621657051146,377.6621657051146,None,377.6621657051146,None,space,377.6621657051146,None,0.7693,378.04336006194353,None,0.2523636966943741,,,,,,,DEC024,001,2022_Dec_02_1535,2-25_cond_decay_EYE-try,2021.2.3,119.84302726361179,
right,1.0,0.75,0,0,0,0,0,0,0,0,0,1,3,13,6,,,,,,,,,,,,,,,1s,379.1351899760775,380.1371689089574,380.12852056883276,None,381.1282417657785,381.7702821511775,381.1282417657785,381.7702821511775,381.76155142113566,None,381.76155142113566,None,space,381.76155142113566,None,0.6397,382.2018770650029,None,0.31092183804139495,,,,,,,DEC024,001,2022_Dec_02_1535,2-25_cond_decay_EYE-try,2021.2.3,119.84302726361179,
left,0.75,1.0,0,0,0,0,0,0,0,0,0,1,4,14,8,,,,,,,,,,,,,,,1s,383.2932413397357,384.29502983018756,384.2870583208278,None,385.28668396594003,386.0452226931229,385.28668396594003,386.0452226931229,386.0452226931229,None,386.0452226931229,None,space,386.0452226931229,None,0.7582,386.34419822413474,None,0.17505909595638514,,,,,,,DEC024,001,2022_Dec_02_1535,2-25_cond_decay_EYE-try,2021.2.3,119.84302726361179,
right,1.0,0.75,0,0,0,0,0,0,0,0,0,1,5,15,2,,,,,,,,,,,,,,,1s,387.44411887507886,388.4449453279376,388.4289365359582,None,389.42869975278154,389.9370205150917,389.42869975278154,389.9370205150917,389.9370205150917,None,389.9370205150917,None,space,389.9370205150917,None,0.5072,390.43525770585984,None,0.36866350285708904,,,,,,,DEC024,001,2022_Dec_02_1535,2-25_cond_decay_EYE-try,2021.2.3,119.84302726361179,
left,0.75,1.0,0,0,0,0,0,0,0,0,0,1,6,16,9,,,,,,,,,,,,,,,1s,391.52768290089443,392.5287161068991,392.5200878791511,None,393.51997428387403,393.9372011399828,393.51997428387403,393.9372011399828,393.9285295540467,None,393.9285295540467,None,space,393.9285295540467,None,0.4127,394.3367678001523,None,0.2841432490386069,,,,,,,DEC024,001,2022_Dec_02_1535,2-25_cond_decay_EYE-try,2021.2.3,119.84302726361179,
left,0.75,1.0,0,0,0,0,0,0,0,0,0,1,7,17,1,,,,,,,,,,,,,,,1s,395.4359419341199,396.43637077417225,396.42908798810095,None,397.4282953031361,398.4204281810671,397.4282953031361,398.4204281810671,398.4204281810671,None,398.4204281810671,None,space,398.4204281810671,None,0.9899,398.81060789106414,None,0.26100923493504524,,,,,,,DEC024,001,2022_Dec_02_1535,2-25_cond_decay_EYE-try,2021.2.3,119.84302726361179,
right,1.0,0.75,0,0,0,0,0,0,0,0,0,1,8,18,7,,,,,,,,,,,,,,,1s,399.90186387486756,400.90381151111796,400.8953537759371,None,401.8954626787454,402.28692369489,401.8954626787454,402.28692369489,402.2780416868627,None,402.2780416868627,None,space,402.2780416868627,None,0.3871,402.7440915959887,None,0.3427505400031805,,,,,,,DEC024,001,2022_Dec_02_1535,2-25_cond_decay_EYE-try,2021.2.3,119.84302726361179,
right,0.75,1.0,1,0,0,0,0,0,0,0,0,1,9,19,0,,,,,,,,,,,,,,,1s,403.83700706483796,404.83713766606525,404.8286041277461,None,405.82891467306763,406.2615929818712,405.82891467306763,406.2615929818712,406.2615929818712,None,406.2615929818712,None,space,406.2615929818712,None,0.4284,406.7118959291838,None,0.3257960770279169,,,,,,,DEC024,001,2022_Dec_02_1535,2-25_cond_decay_EYE-try,2021.2.3,119.84302726361179,
,,,,0,0,0,0,0,0,0,0,,,,,,,,,,,,,,,,,,,,,,,,,,,,,,,,,,,,,,,,,,,,,DEC024,001,2022_Dec_02_1535,2-25_cond_decay_EYE-try,2021.2.3,119.84302726361179,
right,1.0,0.75,0,0,0,0,0,1,0,1,0,0,0,0,6,,,,,,,,,407.6107687950134,None,407.6107687950134,None,407.6107687950134,None,5s,409.7778888628818,410.7788666510023,410.77075682906434,None,411.77018044004217,415.71242111409083,411.77018044004217,415.71242111409083,415.71242111409083,None,415.71242111409083,None,space,415.71242111409083,None,3.9386,416.2025366597809,None,0.3601220762357116,,,,,,,DEC024,001,2022_Dec_02_1535,2-25_cond_decay_EYE-try,2021.2.3,119.84302726361179,
left,0.75,1.0,0,0,0,0,0,1,0,1,0,0,1,1,8,,,,,,,,,,,,,,,5s,417.2940463437699,418.29573416989297,418.27875664504245,None,419.2785582691431,421.71255563385785,419.2785582691431,421.71255563385785,421.71255563385785,None,421.71255563385785,None,space,421.71255563385785,None,2.4311,422.21968978783116,None,0.3771652476862073,,,,,,,DEC024,001,2022_Dec_02_1535,2-25_cond_decay_EYE-try,2021.2.3,119.84302726361179,
right,1.0,0.75,0,0,0,0,0,1,0,1,0,0,2,2,1,,,,,,,,,,,,,,,5s,423.3109716498293,424.3123796209693,424.29517076490447,None,425.29553354810923,428.48765937099233,425.29553354810923,428.48765937099233,428.48765937099233,None,428.48765937099233,None,space,428.48765937099233,None,3.1863,429.010475913994,None,0.39398923702538013,,,,,,,DEC024,001,2022_Dec_02_1535,2-25_cond_decay_EYE-try,2021.2.3,119.84302726361179,
left,0.75,1.0,0,0,0,0,0,1,0,1,0,0,3,3,0,,,,,,,,,,,,,,,5s,430.1028812099248,431.1035174038261,431.09501237096265,None,432.0951062431559,437.0954323899932,432.0951062431559,437.0954323899932,437.0877302028239,None,437.0877302028239,None,space,437.0877302028239,None,4.9961,437.58611444104463,None,0.36844946909695864,,,,,,,DEC024,001,2022_Dec_02_1535,2-25_cond_decay_EYE-try,2021.2.3,119.84302726361179,
left,0.75,1.0,0,0,0,0,0,1,0,1,0,0,4,4,4,,,,,,,,,,,,,,,5s,438.67752654105425,439.6794749670662,439.6703984509222,None,440.67062462400645,441.7711252551526,440.67062462400645,441.7711252551526,441.7623311220668,None,441.7623311220668,None,space,441.7623311220668,None,1.0975,442.2695628008805,None,0.38359235785901546,,,,,,,DEC024,001,2022_Dec_02_1535,2-25_cond_decay_EYE-try,2021.2.3,119.84302726361179,
left,1.0,0.75,1,0,0,0,0,1,0,1,0,0,5,5,2,,,,,,,,,,,,,,,5s,443.3690238557756,444.37049832893535,444.3543906598352,None,445.3543960917741,445.8794782049954,445.3543960917741,445.8794782049954,445.8794782049954,None,445.8794782049954,None,space,445.8794782049954,None,0.5237,446.54622354591265,None,0.5422458127140999,,,,,,,DEC024,001,2022_Dec_02_1535,2-25_cond_decay_EYE-try,2021.2.3,119.84302726361179,
left,0.75,1.0,0,0,0,0,0,1,0,1,0,0,6,6,5,,,,,,,,,,,,,,,5s,447.64424816705287,448.6455145557411,448.6372712031007,None,449.63727076677606,453.12918696412817,449.63727076677606,453.12918696412817,453.12918696412817,None,453.12918696412817,None,space,453.12918696412817,None,3.4901,453.66935619385913,None,0.4107360648922622,,,,,,,DEC024,001,2022_Dec_02_1535,2-25_cond_decay_EYE-try,2021.2.3,119.84302726361179,
right,1.0,0.75,0,0,0,0,0,1,0,1,0,0,7,7,9,,,,,,,,,,,,,,,5s,454.7613307801075,455.7619632189162,455.7537179538049,None,456.75416570017114,461.1121412059292,456.75416570017114,461.1121412059292,461.1046323031187,None,461.1046323031187,None,space,461.1046323031187,None,4.3529,461.5692689730786,None,0.33577221538871527,,,,,,,DEC024,001,2022_Dec_02_1535,2-25_cond_decay_EYE-try,2021.2.3,119.84302726361179,
right,0.75,1.0,1,0,0,0,0,1,0,1,0,0,8,8,7,,,,,,,,,,,,,,,5s,462.6615545847453,463.66214304277673,463.65384987788275,None,464.6541586178355,465.7792102699168,464.6541586178355,465.7792102699168,465.7792102699168,None,465.7792102699168,None,space,465.7792102699168,None,1.1256,466.4195784041658,None,0.5114322360605001,,,,,,,DEC024,001,2022_Dec_02_1535,2-25_cond_decay_EYE-try,2021.2.3,119.84302726361179,
right,1.0,0.75,0,0,0,0,0,1,0,1,0,0,9,9,3,,,,,,,,,,,,,,,5s,467.51129907090217,468.51210885308683,468.50382610876113,None,469.5038858568296,474.00396328186616,469.5038858568296,474.00396328186616,473.99591585295275,None,473.99591585295275,None,space,473.99591585295275,None,4.4992,474.5701053151861,None,0.44483252381905913,,,,,,,DEC024,001,2022_Dec_02_1535,2-25_cond_decay_EYE-try,2021.2.3,119.84302726361179,
right,0.75,1.0,1,0,0,0,0,1,0,1,0,1,0,10,7,,,,,,,,,,,,,,,5s,475.6615453697741,476.663166183047,476.646062805783,None,477.6460134908557,480.1958319260739,477.6460134908557,480.1958319260739,480.1958319260739,None,480.1958319260739,None,space,480.1958319260739,None,2.5468,480.7383163240738,None,0.41714165499433875,,,,,,,DEC024,001,2022_Dec_02_1535,2-25_cond_decay_EYE-try,2021.2.3,119.84302726361179,
left,0.75,1.0,0,0,0,0,0,1,0,1,0,1,1,11,8,,,,,,,,,,,,,,,5s,481.8453674199991,482.84652177104726,482.829718968831,None,483.82980878278613,484.41260938113555,483.82980878278613,484.41260938113555,484.41260938113555,None,484.41260938113555,None,space,484.41260938113555,None,0.5835,485.0119115510024,None,0.46887004002928734,,,,,,,DEC024,001,2022_Dec_02_1535,2-25_cond_decay_EYE-try,2021.2.3,119.84302726361179,
left,1.0,0.75,1,0,0,0,0,1,0,1,0,1,2,12,2,,,,,,,,,,,,,,,5s,486.1027843267657,487.1049806079827,487.0957792880945,None,488.09665518580005,492.3379331808537,488.09665518580005,492.3379331808537,492.3290566871874,None,492.3290566871874,None,space,492.3290566871874,None,4.2347,492.8633537539281,None,0.4096276960335672,,,,,,,DEC024,001,2022_Dec_02_1535,2-25_cond_decay_EYE-try,2021.2.3,119.84302726361179,
right,1.0,0.75,0,0,0,0,0,1,0,1,0,1,3,13,6,,,,,,,,,,,,,,,5s,493.9697402170859,494.9712287769653,494.96273296978325,None,495.9630255890079,496.15472706081346,495.9630255890079,496.15472706081346,496.14581937203184,497.1465936107561,496.14581937203184,497.1465936107561,None,496.14581937203184,497.1465936107561,0.1885,497.2780472501181,None,,,,,,,,DEC024,001,2022_Dec_02_1535,2-25_cond_decay_EYE-try,2021.2.3,119.84302726361179,
left,0.75,1.0,0,0,0,0,0,1,0,1,0,1,4,14,5,,,,,,,,,,,,,,,5s,498.3699508779682,499.37175634503365,499.35470075998455,None,500.3546692491509,501.2881250400096,500.3546692491509,501.2881250400096,501.2881250400096,None,501.2881250400096,None,space,501.2881250400096,None,0.9306,501.7786048599519,None,0.3600562340579927,,,,,,,DEC024,001,2022_Dec_02_1535,2-25_cond_decay_EYE-try,2021.2.3,119.84302726361179,
right,1.0,0.75,0,0,0,0,0,1,0,1,0,1,5,15,9,,,,,,,,,,,,,,,5s,502.87023676605895,503.87167768599465,503.86352761508897,None,504.86261749779806,508.92171907192096,504.86261749779806,508.92171907192096,508.92171907192096,None,508.92171907192096,None,space,508.92171907192096,None,4.0582,509.4286880339496,None,0.37688552821055055,,,,,,,DEC024,001,2022_Dec_02_1535,2-25_cond_decay_EYE-try,2021.2.3,119.84302726361179,
right,1.0,0.75,0,0,0,0,0,1,0,1,0,1,6,16,3,,,,,,,,,,,,,,,5s,510.51986124087125,511.52172265481204,511.5043436367996,None,512.5043590231799,514.0630553378724,512.5043590231799,514.0630553378724,514.0630553378724,None,514.0630553378724,None,space,514.0630553378724,None,1.5518,514.5965216010809,None,0.4105301210656762,,,,,,,DEC024,001,2022_Dec_02_1535,2-25_cond_decay_EYE-try,2021.2.3,119.84302726361179,
left,0.75,1.0,0,0,0,0,0,1,0,1,0,1,7,17,4,,,,,,,,,,,,,,,5s,515.6948080947623,516.6967650591396,516.6803033300675,None,517.6793495458551,519.3135677701794,517.6793495458551,519.3135677701794,519.3135677701794,None,519.3135677701794,None,space,519.3135677701794,None,1.6287,519.8779995250516,None,0.433743828907609,,,,,,,DEC024,001,2022_Dec_02_1535,2-25_cond_decay_EYE-try,2021.2.3,119.84302726361179,
left,0.75,1.0,0,0,0,0,0,1,0,1,0,1,8,18,0,,,,,,,,,,,,,,,5s,520.9697376019321,521.9717885069549,521.9633028060198,None,522.9635700131766,524.163091389928,522.9635700131766,524.163091389928,524.1553611457348,None,524.1553611457348,None,space,524.1553611457348,None,1.1942,524.7039463710971,None,0.4245709120295942,,,,,,,DEC024,001,2022_Dec_02_1535,2-25_cond_decay_EYE-try,2021.2.3,119.84302726361179,
right,1.0,0.75,0,0,0,0,0,1,0,1,0,1,9,19,1,,,,,,,,,,,,,,,5s,525.8054201668128,526.8044681930915,526.7962957001291,None,527.7970443209633,529.4804349709302,527.7970443209633,529.4804349709302,529.4716478288174,None,529.4716478288174,None,space,529.4716478288174,None,1.6761,530.0123718068935,None,0.4110552635975182,,,,,,,DEC024,001,2022_Dec_02_1535,2-25_cond_decay_EYE-try,2021.2.3,119.84302726361179,
,,,,0,0,0,0,1,0,1,0,,,,,,,,,,,,,,,,,,,,,,,,,,,,,,,,,,,,,,,,,,,,,DEC024,001,2022_Dec_02_1535,2-25_cond_decay_EYE-try,2021.2.3,119.84302726361179,
left,0.75,1.0,0,0,0,0,0,2,0,2,0,0,0,0,2,,,,,,,,,530.904284437187,None,530.904284437187,None,530.904284437187,None,10s,534.4042581347749,535.4053197349422,535.3971072831191,None,536.3962012799457,543.722174835857,536.3962012799457,543.722174835857,543.7131102369167,None,543.7131102369167,None,space,543.7131102369167,None,7.3205,544.2455713199452,None,0.40101863630115986,,,,,,,DEC024,001,2022_Dec_02_1535,2-25_cond_decay_EYE-try,2021.2.3,119.84302726361179,
left,0.75,1.0,0,0,0,0,0,2,0,2,0,0,1,1,8,,,,,,,,,,,,,,,10s,545.3372616958804,546.3383530150168,546.3303102301434,None,547.3304209839553,556.3722047330812,547.3304209839553,556.3722047330812,556.363516272977,None,556.363516272977,None,space,556.363516272977,None,9.0343,556.8285723850131,None,0.33630109718069434,,,,,,,DEC024,001,2022_Dec_02_1535,2-25_cond_decay_EYE-try,2021.2.3,119.84302726361179,
right,1.0,0.75,0,0,0,0,0,2,0,2,0,0,2,2,1,,,,,,,,,,,,,,,10s,557.9211740777828,558.922322363127,558.9133211029693,None,559.9136548838578,568.5550320651382,559.9136548838578,568.5550320651382,568.547554670833,None,568.547554670833,None,space,568.547554670833,None,8.6406,569.0466209701262,None,0.3751258528791368,,,,,,,DEC024,001,2022_Dec_02_1535,2-25_cond_decay_EYE-try,2021.2.3,119.84302726361179,
right,1.0,0.75,0,0,0,0,0,2,0,2,0,0,3,3,6,,,,,,,,,,,,,,,10s,570.136973220855,571.1382676991634,571.1302217077464,None,572.1308855330572,575.3057892010547,572.1308855330572,575.3057892010547,575.3057892010547,None,575.3057892010547,None,space,575.3057892010547,None,3.1738,575.9377116980031,None,0.5024061328731477,,,,,,,DEC024,001,2022_Dec_02_1535,2-25_cond_decay_EYE-try,2021.2.3,119.84302726361179,
right,1.0,0.75,0,0,0,0,0,2,0,2,0,0,4,4,4,,,,,,,,,,,,,,,10s,577.0295282909647,578.0309659889899,578.0225912467577,None,579.021677615121,580.3890635571443,579.021677615121,580.3890635571443,580.3802763777785,None,580.3802763777785,None,space,580.3802763777785,None,1.3632,580.9705042438582,None,0.461259291972965,,,,,,,DEC024,001,2022_Dec_02_1535,2-25_cond_decay_EYE-try,2021.2.3,119.84302726361179,
left,0.75,1.0,0,0,0,0,0,2,0,2,0,0,5,5,7,,,,,,,,,,,,,,,10s,582.0631107469089,583.0641643968411,583.0560296899639,None,584.0553255509585,590.913843204733,584.0553255509585,590.913843204733,590.9051212118939,None,590.9051212118939,None,space,590.9051212118939,None,6.852,591.4391747619957,None,0.40932476334273815,,,,,,,DEC024,001,2022_Dec_02_1535,2-25_cond_decay_EYE-try,2021.2.3,119.84302726361179,
right,1.0,0.75,0,0,0,0,0,2,0,2,0,0,6,6,9,,,,,,,,,,,,,,,10s,592.5377745931037,593.5390490619466,593.5306106321514,None,594.5302284839563,598.5394578538835,594.5302284839563,598.5394578538835,598.5308036957867,None,598.5308036957867,None,space,598.5308036957867,None,4.0025,599.0721421027556,None,0.41725335270166397,,,,,,,DEC024,001,2022_Dec_02_1535,2-25_cond_decay_EYE-try,2021.2.3,119.84302726361179,
right,0.75,1.0,1,0,0,0,0,2,0,2,0,0,7,7,0,,,,,,,,,,,,,,,10s,600.171124716755,601.17271582596,601.164050207939,None,602.163978649769,608.8892973358743,602.163978649769,608.8892973358743,608.8892973358743,None,608.8892973358743,None,space,608.8892973358743,None,6.7233,609.3964906767942,None,0.37774263275787234,,,,,,,DEC024,001,2022_Dec_02_1535,2-25_cond_decay_EYE-try,2021.2.3,119.84302726361179,
left,1.0,0.75,1,0,0,0,0,2,0,2,0,0,8,8,3,,,,,,,,,,,,,,,10s,610.4879258959554,611.489107248839,611.481059499085,None,612.480332126841,616.9393285978585,612.480332126841,616.9393285978585,616.9307376248762,None,616.9307376248762,None,space,616.9307376248762,None,4.4526,617.4725087140687,None,0.41731728706508875,,,,,,,DEC024,001,2022_Dec_02_1535,2-25_cond_decay_EYE-try,2021.2.3,119.84302726361179,
left,0.75,1.0,0,0,0,0,0,2,0,2,0,0,9,9,5,,,,,,,,,,,,,,,10s,618.5627398667857,619.5646205088124,619.5552980490029,None,620.5556278810836,629.7398861390539,620.5556278810836,629.7398861390539,629.7398861390539,None,629.7398861390539,None,space,629.7398861390539,None,9.1833,630.1970449131913,None,0.32688028505072,,,,,,,DEC024,001,2022_Dec_02_1535,2-25_cond_decay_EYE-try,2021.2.3,119.84302726361179,
left,0.75,1.0,0,0,0,0,0,2,0,2,0,1,0,10,7,,,,,,,,,,,,,,,10s,631.287994815968,632.2893718681298,632.2812442751601,None,633.2811628198251,642.8395202429965,633.2811628198251,642.8395202429965,642.8395202429965,None,642.8395202429965,None,space,642.8395202429965,None,9.5561,643.2982249287888,None,0.3339774738997221,,,,,,,DEC024,001,2022_Dec_02_1535,2-25_cond_decay_EYE-try,2021.2.3,119.84302726361179,
right,0.75,1.0,1,0,0,0,0,2,0,2,0,1,1,11,0,,,,,,,,,,,,,,,10s,644.3721295301802,645.373039831873,645.3558198027313,None,646.355987355113,647.2140561467968,646.355987355113,647.2140561467968,647.2140561467968,None,647.2140561467968,None,space,647.2140561467968,None,0.8573,648.0635728081688,None,0.7182814870029688,,,,,,,DEC024,001,2022_Dec_02_1535,2-25_cond_decay_EYE-try,2021.2.3,119.84302726361179,
left,1.0,0.75,1,0,0,0,0,2,0,2,0,1,2,12,3,,,,,,,,,,,,,,,10s,649.1631726827472,650.1642350028269,650.1567532401532,None,651.1559488470666,655.7565838531591,651.1559488470666,655.7565838531591,655.7484258878976,None,655.7484258878976,None,space,655.7484258878976,None,4.5954,656.3219321700744,None,0.4439523504115641,,,,,,,DEC024,001,2022_Dec_02_1535,2-25_cond_decay_EYE-try,2021.2.3,119.84302726361179,
right,1.0,0.75,0,0,0,0,0,2,0,2,0,1,3,13,4,,,,,,,,,,,,,,,10s,657.4138943441212,658.4149239049293,658.3976490548812,None,659.3979239878245,661.4317647051066,659.3979239878245,661.4317647051066,661.4317647051066,None,661.4317647051066,None,None,661.4317647051066,None,2.0292,662.5556664830074,None,,,,,,,,DEC024,001,2022_Dec_02_1535,2-25_cond_decay_EYE-try,2021.2.3,119.84302726361179,
right,1.0,0.75,0,0,0,0,0,2,0,2,0,1,4,14,1,,,,,,,,,,,,,,,10s,663.6473478539847,664.647944114171,664.6396241351031,None,665.6399608687498,667.6235318747349,665.6399608687498,667.6235318747349,667.6235318747349,None,667.6235318747349,None,space,667.6235318747349,None,1.9809,668.1384039879777,None,0.3850143561139703,,,,,,,DEC024,001,2022_Dec_02_1535,2-25_cond_decay_EYE-try,2021.2.3,119.84302726361179,
left,0.75,1.0,0,0,0,0,0,2,0,2,0,1,5,15,8,,,,,,,,,,,,,,,10s,669.2308004079387,670.2317825770006,670.2235530558974,None,671.222860023845,680.8816527351737,671.222860023845,680.8816527351737,680.8816527351737,None,680.8816527351737,None,space,680.8816527351737,None,9.6574,681.3982285107486,None,0.39241405483335257,,,,,,,DEC024,001,2022_Dec_02_1535,2-25_cond_decay_EYE-try,2021.2.3,119.84302726361179,
right,1.0,0.75,0,0,0,0,0,2,0,2,0,1,6,16,6,,,,,,,,,,,,,,,10s,682.4973343401216,683.498414888978,683.4812505901791,None,684.4816736010835,685.1733799320646,684.4816736010835,685.1733799320646,685.1733799320646,None,685.1733799320646,None,space,685.1733799320646,None,0.6851,685.8975176750682,None,0.5946119339205325,,,,,,,DEC024,001,2022_Dec_02_1535,2-25_cond_decay_EYE-try,2021.2.3,119.84302726361179,
left,0.75,1.0,0,0,0,0,0,2,0,2,0,1,7,17,5,,,,,,,,,,,,,,,10s,686.9967455398291,687.9988167597912,687.9816336189397,None,688.9814765569754,689.3984906417318,688.9814765569754,689.3984906417318,689.3984906417318,None,689.3984906417318,None,space,689.3984906417318,None,0.4163,689.9549708538689,None,0.4271853547543287,,,,,,,DEC024,001,2022_Dec_02_1535,2-25_cond_decay_EYE-try,2021.2.3,119.84302726361179,
right,1.0,0.75,0,0,0,0,0,2,0,2,0,1,8,18,9,,,,,,,,,,,,,,,10s,691.0476810480468,692.0486653707922,692.0403308351524,None,693.0395872788504,697.1153825279325,693.0395872788504,697.1153825279325,697.1153825279325,None,697.1153825279325,None,space,697.1153825279325,None,4.075,697.705655016005,None,0.4607470198534429,,,,,,,DEC024,001,2022_Dec_02_1535,2-25_cond_decay_EYE-try,2021.2.3,119.84302726361179,
left,0.75,1.0,0,0,0,0,0,2,0,2,0,1,9,19,2,,,,,,,,,,,,,,,10s,698.8057590811513,699.8073133630678,699.7905567809939,None,700.7903486960568,702.2322660777718,700.7903486960568,702.2322660777718,702.2322660777718,None,702.2322660777718,None,None,702.2322660777718,None,1.4354,703.3554389667697,None,,,,,,,,DEC024,001,2022_Dec_02_1535,2-25_cond_decay_EYE-try,2021.2.3,119.84302726361179,
,,,,0,0,0,0,2,0,2,0,,,,,,,,,,,,,,,,,,,,,,,,,,,,,,,,,,,,,,,,,,,,,DEC024,001,2022_Dec_02_1535,2-25_cond_decay_EYE-try,2021.2.3,119.84302726361179,
left,0.75,1.0,0,0,0,0,0,3,0,3,0,0,0,0,2,,,,,,,,,704.2471272810362,None,704.2471272810362,None,704.2471272810362,None,3s,704.7724163029343,705.7738122469746,705.7655635457486,None,706.7653703107499,708.273946267087,706.7653703107499,708.273946267087,708.273946267087,None,708.273946267087,None,space,708.273946267087,None,1.5086,708.7405621027574,None,0.33552317321300507,,,,,,,DEC024,001,2022_Dec_02_1535,2-25_cond_decay_EYE-try,2021.2.3,119.84302726361179,
right,0.75,1.0,1,0,0,0,0,3,0,3,0,0,1,1,7,,,,,,,,,,,,,,,3s,709.8303489391692,710.8322687428445,710.8231941629201,None,711.823805951979,712.5074250898324,711.823805951979,712.5074250898324,712.4986886978149,None,712.4986886978149,None,space,712.4986886978149,None,0.6764,713.0733933458105,None,0.4505388531833887,,,,,,,DEC024,001,2022_Dec_02_1535,2-25_cond_decay_EYE-try,2021.2.3,119.84302726361179,
left,0.75,1.0,0,0,0,0,0,3,0,3,0,0,2,2,8,,,,,,,,,,,,,,,3s,714.1723100529052,715.1731563061476,715.1652849731036,None,716.1652499060147,716.6317681749351,716.1652499060147,716.6317681749351,716.6317681749351,None,716.6317681749351,None,space,716.6317681749351,None,0.4665,717.1970006111078,None,0.43577896524220705,,,,,,,DEC024,001,2022_Dec_02_1535,2-25_cond_decay_EYE-try,2021.2.3,119.84302726361179,
left,0.75,1.0,0,0,0,0,0,3,0,3,0,0,3,3,1,,,,,,,,,,,,,,,3s,718.2893469077535,719.2901999079622,719.2814688878134,None,720.2823030538857,721.4739299919456,720.2823030538857,721.4739299919456,721.4739299919456,None,721.4739299919456,None,space,721.4739299919456,None,1.1916,721.9561992697418,None,0.35287556191906333,,,,,,,DEC024,001,2022_Dec_02_1535,2-25_cond_decay_EYE-try,2021.2.3,119.84302726361179,
left,0.75,1.0,0,0,0,0,0,3,0,3,0,0,4,4,3,,,,,,,,,,,,,,,3s,723.0478718429804,724.0489608738571,724.0403015729971,None,725.0399762978777,727.1069522830658,725.0399762978777,727.1069522830658,727.1069522830658,None,727.1069522830658,None,space,727.1069522830658,None,2.0634,727.5479481988586,None,0.31068542692810297,,,,,,,DEC024,001,2022_Dec_02_1535,2-25_cond_decay_EYE-try,2021.2.3,119.84302726361179,
left,1.0,0.75,1,0,0,0,0,3,0,3,0,0,5,5,5,,,,,,,,,,,,,,,3s,728.6389291808009,729.6400957447477,729.6320011657663,None,730.6318595758639,731.8405733518302,730.6318595758639,731.8405733518302,731.8318763049319,None,731.8318763049319,None,space,731.8318763049319,None,1.2015,732.3647367157973,None,0.4026359058916569,,,,,,,DEC024,001,2022_Dec_02_1535,2-25_cond_decay_EYE-try,2021.2.3,119.84302726361179,
right,1.0,0.75,0,0,0,0,0,3,0,3,0,0,6,6,4,,,,,,,,,,,,,,,3s,733.456143902149,734.4571790471673,734.4490999421105,None,735.4491203338839,737.1408285177313,735.4491203338839,737.1408285177313,737.1318573411554,None,737.1318573411554,None,space,737.1318573411554,None,1.6866,737.672246820759,None,0.4088938729837537,,,,,,,DEC024,001,2022_Dec_02_1535,2-25_cond_decay_EYE-try,2021.2.3,119.84302726361179,
right,1.0,0.75,0,0,0,0,0,3,0,3,0,0,7,7,0,,,,,,,,,,,,,,,3s,738.7574085090309,739.757453255821,739.7487219711766,None,740.7493345290422,743.5239689908922,740.7493345290422,743.5239689908922,743.5239689908922,None,743.5239689908922,None,space,743.5239689908922,None,2.7733,743.9981754729524,None,0.35100000677630305,,,,,,,DEC024,001,2022_Dec_02_1535,2-25_cond_decay_EYE-try,2021.2.3,119.84302726361179,
right,1.0,0.75,0,0,0,0,0,3,0,3,0,0,8,8,6,,,,,,,,,,,,,,,3s,745.0976783009246,746.0989512591623,746.0907481708564,None,747.0906185498461,749.6993117937818,747.0906185498461,749.6993117937818,749.6903988858685,None,749.6903988858685,None,space,749.6903988858685,None,2.6025,750.1396697391756,None,0.31907939771190286,,,,,,,DEC024,001,2022_Dec_02_1535,2-25_cond_decay_EYE-try,2021.2.3,119.84302726361179,
right,1.0,0.75,0,0,0,0,0,3,0,3,0,0,9,9,9,,,,,,,,,,,,,,,3s,751.2231533350423,752.2238247827627,752.2153546619229,None,753.215958498884,755.6659478740767,753.215958498884,755.6659478740767,755.6659478740767,None,755.6659478740767,None,space,755.6659478740767,None,2.4485,756.2069719857536,None,0.41700554406270385,,,,,,,DEC024,001,2022_Dec_02_1535,2-25_cond_decay_EYE-try,2021.2.3,119.84302726361179,
right,1.0,0.75,0,0,0,0,0,3,0,3,0,1,0,10,4,,,,,,,,,,,,,,,3s,757.2732662018389,758.2740566730499,758.2655148268677,None,759.2653357400559,759.865910503082,759.2653357400559,759.865910503082,759.8572254539467,None,759.8572254539467,None,space,759.8572254539467,None,0.5931,760.4480996648781,None,0.4675497869029641,,,,,,,DEC024,001,2022_Dec_02_1535,2-25_cond_decay_EYE-try,2021.2.3,119.84302726361179,
right,0.75,1.0,1,0,0,0,0,3,0,3,0,1,1,11,7,,,,,,,,,,,,,,,3s,761.548164093867,762.54890787974,762.5407277359627,None,763.5405634520575,765.2323907748796,763.5405634520575,765.2323907748796,765.2323907748796,None,765.2323907748796,None,space,765.2323907748796,None,1.6878,765.8317925841548,None,0.47536462219431996,,,,,,,DEC024,001,2022_Dec_02_1535,2-25_cond_decay_EYE-try,2021.2.3,119.84302726361179,
left,0.75,1.0,0,0,0,0,0,3,0,3,0,1,2,12,2,,,,,,,,,,,,,,,3s,766.9311843668111,767.9323131828569,767.9247212638147,None,768.9243091037497,770.2905081040226,768.9243091037497,770.2905081040226,770.2826785617508,None,770.2826785617508,None,space,770.2826785617508,None,1.3611,770.832503228914,None,0.4255162472836673,,,,,,,DEC024,001,2022_Dec_02_1535,2-25_cond_decay_EYE-try,2021.2.3,119.84302726361179,
right,1.0,0.75,0,0,0,0,0,3,0,3,0,1,3,13,0,,,,,,,,,,,,,,,3s,771.9331326889805,772.9327711998485,772.9242038279772,None,773.9240299570374,776.8746776129119,773.9240299570374,776.8746776129119,776.8746776129119,None,776.8746776129119,None,space,776.8746776129119,None,2.9501,777.3566557150334,None,0.3520437781699002,,,,,,,DEC024,001,2022_Dec_02_1535,2-25_cond_decay_EYE-try,2021.2.3,119.84302726361179,
left,0.75,1.0,0,0,0,0,0,3,0,3,0,1,4,14,3,,,,,,,,,,,,,,,3s,778.4484162949957,779.4494455708191,779.4410562189296,None,780.441231471952,782.1407651938498,780.441231471952,782.1407651938498,782.1332047018223,None,782.1332047018223,None,space,782.1332047018223,None,1.6949,782.6161466259509,None,0.35856084106490016,,,,,,,DEC024,001,2022_Dec_02_1535,2-25_cond_decay_EYE-try,2021.2.3,119.84302726361179,
left,1.0,0.75,1,0,0,0,0,3,0,3,0,1,5,15,5,,,,,,,,,,,,,,,3s,783.6818878059275,784.6826754589565,784.6741284951568,None,785.6744827227667,788.4663915429264,785.6744827227667,788.4663915429264,788.4663915429264,None,788.4663915429264,None,space,788.4663915429264,None,2.7909,789.1395545108244,None,0.5444854330271482,,,,,,,DEC024,001,2022_Dec_02_1535,2-25_cond_decay_EYE-try,2021.2.3,119.84302726361179,
right,1.0,0.75,0,0,0,0,0,3,0,3,0,1,6,16,9,,,,,,,,,,,,,,,3s,790.232118404936,791.2322585857473,791.2241344437934,None,792.2243230720051,792.440885100048,792.2243230720051,792.440885100048,792.4332648129202,793.4333496568725,792.4332648129202,793.4333496568725,None,792.4332648129202,793.4333496568725,0.2114,793.5650502070785,None,,,,,,,,DEC024,001,2022_Dec_02_1535,2-25_cond_decay_EYE-try,2021.2.3,119.84302726361179,
left,0.75,1.0,0,0,0,0,0,3,0,3,0,1,7,17,1,,,,,,,,,,,,,,,3s,794.6648041699082,795.6663363240659,795.6494506001472,None,796.650068692863,798.908240696881,796.650068692863,798.908240696881,798.908240696881,None,798.908240696881,None,space,798.908240696881,None,2.2519,799.3812242718413,None,0.34347375528886914,,,,,,,DEC024,001,2022_Dec_02_1535,2-25_cond_decay_EYE-try,2021.2.3,119.84302726361179,
left,0.75,1.0,0,0,0,0,0,3,0,3,0,1,8,18,8,,,,,,,,,,,,,,,3s,800.4732005228288,801.4748154231347,801.4661388271488,None,802.4658860960044,803.4992573219351,802.4658860960044,803.4992573219351,803.4914860757999,None,803.4914860757999,None,space,803.4914860757999,None,1.0296,804.041354557965,None,0.425302991643548,,,,,,,DEC024,001,2022_Dec_02_1535,2-25_cond_decay_EYE-try,2021.2.3,119.84302726361179,
right,1.0,0.75,0,0,0,0,0,3,0,3,0,1,9,19,6,,,,,,,,,,,,,,,3s,805.1399970808998,806.1410925528035,806.1328719430603,None,807.1330891647376,808.8244333197363,807.1330891647376,808.8244333197363,808.8244333197363,None,808.8244333197363,None,space,808.8244333197363,None,1.6901,809.3318523960188,None,0.37808159505948424,,,,,,,DEC024,001,2022_Dec_02_1535,2-25_cond_decay_EYE-try,2021.2.3,119.84302726361179,
,,,,0,0,0,0,3,0,3,0,,,,,,,,,,,,,,,,,,,,,,,,,,,,,,,,,,,,,,,,,,,,,DEC024,001,2022_Dec_02_1535,2-25_cond_decay_EYE-try,2021.2.3,119.84302726361179,
,,,,0,0,0,0,,,,,,,,,,,,,,,,,,,,,,,,,,,,,,,,,,,,,,,,,,,810.2235079407692,None,810.2235079407692,None,810.2235079407692,None,DEC024,001,2022_Dec_02_1535,2-25_cond_decay_EYE-try,2021.2.3,119.84302726361179,
right,1.0,0.75,0,1,0,1,0,0,0,0,0,0,0,0,7,,,,,,,,,815.2231528609991,None,815.2231528609991,None,815.2231528609991,None,1s,826.3918428127654,827.3911113007925,827.3827725271694,None,828.3828177750111,828.9086245871149,828.3828177750111,828.9086245871149,828.9086245871149,None,828.9086245871149,None,None,828.9086245871149,None,0.5249,830.0325573310256,None,,,,,,,,DEC024,001,2022_Dec_02_1535,2-25_cond_decay_EYE-try,2021.2.3,119.84302726361179,
left,0.75,1.0,0,1,0,1,0,0,0,0,0,0,1,1,3,,,,,,,,,,,,,,,1s,831.1238223868422,832.1252141930163,832.1170389307663,None,833.1167351198383,833.8329487247393,833.1167351198383,833.8329487247393,833.8249981640838,None,833.8249981640838,None,space,833.8249981640838,None,0.7109,834.4826091928408,None,0.5273647466674447,,,,,,,DEC024,001,2022_Dec_02_1535,2-25_cond_decay_EYE-try,2021.2.3,119.84302726361179,
right,1.0,0.75,0,1,0,1,0,0,0,0,0,0,2,2,1,,,,,,,,,,,,,,,1s,835.5736673469655,836.5749066020362,836.5586893227883,None,837.5584479440004,837.8417999879457,837.5584479440004,837.8417999879457,837.8328233510256,None,837.8328233510256,None,space,837.8328233510256,None,0.2755,838.6990051590838,None,0.7366842073388398,,,,,,,DEC024,001,2022_Dec_02_1535,2-25_cond_decay_EYE-try,2021.2.3,119.84302726361179,
right,1.0,0.75,0,1,0,1,0,0,0,0,0,0,3,3,6,,,,,,,,,,,,,,,1s,839.782134491019,840.7836287971586,840.774538394995,None,841.775524506811,842.5914226849563,841.775524506811,842.5914226849563,842.5914226849563,None,842.5914226849563,None,space,842.5914226849563,None,0.8149,843.1155703389086,None,0.394159730989486,,,,,,,DEC024,001,2022_Dec_02_1535,2-25_cond_decay_EYE-try,2021.2.3,119.84302726361179,
right,0.75,1.0,1,1,0,1,0,0,0,0,0,0,4,4,8,,,,,,,,,,,,,,,1s,844.2066406658851,845.208736919798,845.2005874658935,None,846.2004951960407,846.5666090771556,846.2004951960407,846.5666090771556,846.5586219318211,None,846.5586219318211,None,space,846.5586219318211,None,0.3605,847.1900146957487,None,0.5004219869151711,,,,,,,DEC024,001,2022_Dec_02_1535,2-25_cond_decay_EYE-try,2021.2.3,119.84302726361179,
left,0.75,1.0,0,1,0,1,0,0,0,0,0,0,5,5,9,,,,,,,,,,,,,,,1s,848.2838485068642,849.2837470849045,849.2753450088203,None,850.274751687888,851.1166050089523,850.274751687888,851.1166050089523,851.1166050089523,None,851.1166050089523,None,space,851.1166050089523,None,0.8382,851.6240696269087,None,0.3758586118929088,,,,,,,DEC024,001,2022_Dec_02_1535,2-25_cond_decay_EYE-try,2021.2.3,119.84302726361179,
right,1.0,0.75,0,1,0,1,0,0,0,0,0,0,6,6,4,,,,,,,,,,,,,,,1s,852.715551530011,853.7170300078578,853.7081355811097,None,854.7083133389242,855.3165468550287,854.7083133389242,855.3165468550287,855.3165468550287,None,855.3165468550287,None,space,855.3165468550287,None,0.6048,855.8243687227368,None,0.3755678590387106,,,,,,,DEC024,001,2022_Dec_02_1535,2-25_cond_decay_EYE-try,2021.2.3,119.84302726361179,
left,0.75,1.0,0,1,0,1,0,0,0,0,0,0,7,7,5,,,,,,,,,,,,,,,1s,856.9151383577846,857.9166367738508,857.908544333186,None,858.9085079538636,859.6246630470268,858.9085079538636,859.6246630470268,859.6171544818208,None,859.6171544818208,None,space,859.6171544818208,None,0.7156,860.1319071091712,None,0.3855420402251184,,,,,,,DEC024,001,2022_Dec_02_1535,2-25_cond_decay_EYE-try,2021.2.3,119.84302726361179,
left,0.75,1.0,0,1,0,1,0,0,0,0,0,0,8,8,2,,,,,,,,,,,,,,,1s,861.2158025400713,862.2166081289761,862.2083686399274,None,863.2084759357385,864.1751967361197,863.2084759357385,864.1751967361197,864.1751967361197,None,864.1751967361197,None,space,864.1751967361197,None,0.9675,864.6993990200572,None,0.3942211293615401,,,,,,,DEC024,001,2022_Dec_02_1535,2-25_cond_decay_EYE-try,2021.2.3,119.84302726361179,
left,1.0,0.75,1,1,0,1,0,0,0,0,0,0,9,9,0,,,,,,,,,,,,,,,1s,865.790464208927,866.7916475660168,866.7834587441757,None,867.7834935318679,868.5750875477679,867.7834935318679,868.5750875477679,868.5673880041577,None,868.5673880041577,None,space,868.5673880041577,None,0.7862,869.0406948290765,None,0.34961864259094,,,,,,,DEC024,001,2022_Dec_02_1535,2-25_cond_decay_EYE-try,2021.2.3,119.84302726361179,
left,0.75,1.0,0,1,0,1,0,0,0,0,0,1,0,10,3,,,,,,,,,,,,,,,1s,870.140562208835,871.1425338699482,871.1334067839198,None,872.1254937918857,872.6838526101783,872.1254937918857,872.6838526101783,872.6838526101783,None,872.6838526101783,None,space,872.6838526101783,None,0.5576,873.1995046017691,None,0.3839691001921892,,,,,,,DEC024,001,2022_Dec_02_1535,2-25_cond_decay_EYE-try,2021.2.3,119.84302726361179,
right,1.0,0.75,0,1,0,1,0,0,0,0,0,1,1,11,7,,,,,,,,,,,,,,,1s,874.2592151267454,875.2585647520609,875.2502612308599,None,876.2500928328373,877.1253113518469,876.2500928328373,877.1253113518469,877.1253113518469,None,877.1253113518469,None,space,877.1253113518469,None,0.8724,877.7074906551279,None,0.45223033893853426,,,,,,,DEC024,001,2022_Dec_02_1535,2-25_cond_decay_EYE-try,2021.2.3,119.84302726361179,
left,0.75,1.0,0,1,0,1,0,0,0,0,0,1,2,12,2,,,,,,,,,,,,,,,1s,878.7995986388996,879.8000537231565,879.7925355117768,None,880.79168225592,881.4509052629583,880.79168225592,881.4509052629583,881.4421234759502,None,881.4421234759502,None,space,881.4421234759502,None,0.652,882.0258952798322,None,0.4584257588721812,,,,,,,DEC024,001,2022_Dec_02_1535,2-25_cond_decay_EYE-try,2021.2.3,119.84302726361179,
right,0.75,1.0,1,1,0,1,0,0,0,0,0,1,3,13,8,,,,,,,,,,,,,,,1s,883.1323866089806,884.1342285098508,884.1259557688609,None,885.125308142975,885.3421300770715,885.125308142975,885.3421300770715,885.3334303181618,None,885.3334303181618,None,space,885.3334303181618,None,0.2128,885.9243417349644,None,0.46128716319799423,,,,,,,DEC024,001,2022_Dec_02_1535,2-25_cond_decay_EYE-try,2021.2.3,119.84302726361179,
right,1.0,0.75,0,1,0,1,0,0,0,0,0,1,4,14,4,,,,,,,,,,,,,,,1s,887.0084269251674,888.0092492238618,888.0007521971129,None,889.000098830089,889.5676654521376,889.000098830089,889.5676654521376,889.5676654521376,None,889.5676654521376,None,space,889.5676654521376,None,0.5642,889.9491331488825,None,0.25220391526818275,,,,,,,DEC024,001,2022_Dec_02_1535,2-25_cond_decay_EYE-try,2021.2.3,119.84302726361179,
left,0.75,1.0,0,1,0,1,0,0,0,0,0,1,5,15,9,,,,,,,,,,,,,,,1s,891.0408355877735,892.0421636337414,892.0336341517977,None,893.034046726767,893.3087044581771,893.034046726767,893.3087044581771,893.3087044581771,None,893.3087044581771,None,space,893.3087044581771,None,0.2752,893.8176389620639,None,0.38402203377336264,,,,,,,DEC024,001,2022_Dec_02_1535,2-25_cond_decay_EYE-try,2021.2.3,119.84302726361179,
left,1.0,0.75,1,1,0,1,0,0,0,0,0,1,6,16,0,,,,,,,,,,,,,,,1s,894.8821470797993,895.8842757088132,895.8751096157357,None,896.8757334561087,897.5755381430499,896.8757334561087,897.5755381430499,897.5755381430499,None,897.5755381430499,None,space,897.5755381430499,None,0.6965,898.2242310480215,None,0.5252682059071958,,,,,,,DEC024,001,2022_Dec_02_1535,2-25_cond_decay_EYE-try,2021.2.3,119.84302726361179,
left,0.75,1.0,0,1,0,1,0,0,0,0,0,1,7,17,5,,,,,,,,,,,,,,,1s,899.324938358739,900.3256694790907,900.3174154991284,None,901.317300543189,902.2839847719297,901.317300543189,902.2839847719297,902.2839847719297,None,902.2839847719297,None,space,902.2839847719297,None,0.9669,902.9328877679072,None,0.518858075607568,,,,,,,DEC024,001,2022_Dec_02_1535,2-25_cond_decay_EYE-try,2021.2.3,119.84302726361179,
right,1.0,0.75,0,1,0,1,0,0,0,0,0,1,8,18,6,,,,,,,,,,,,,,,1s,904.0249738227576,905.0261334641837,905.017003052868,None,906.0170671539381,906.3925741701387,906.0170671539381,906.3925741701387,906.383878596127,None,906.383878596127,None,space,906.383878596127,None,0.368,906.9657177738845,None,0.4531763796694577,,,,,,,DEC024,001,2022_Dec_02_1535,2-25_cond_decay_EYE-try,2021.2.3,119.84302726361179,
right,1.0,0.75,0,1,0,1,0,0,0,0,0,1,9,19,1,,,,,,,,,,,,,,,1s,908.057788413018,909.0589957609773,909.0508164567873,None,910.0509390858933,910.7170227798633,910.0509390858933,910.7170227798633,910.7092006369494,None,910.7092006369494,None,space,910.7092006369494,None,0.6636,911.1911396207288,None,0.3582733981311321,,,,,,,DEC024,001,2022_Dec_02_1535,2-25_cond_decay_EYE-try,2021.2.3,119.84302726361179,
,,,,1,0,1,0,0,0,0,0,,,,,,,,,,,,,,,,,,,,,,,,,,,,,,,,,,,,,,,,,,,,,DEC024,001,2022_Dec_02_1535,2-25_cond_decay_EYE-try,2021.2.3,119.84302726361179,
left,0.75,1.0,0,1,0,1,0,1,0,1,0,0,0,0,3,,,,,,,,,912.091097028926,None,912.091097028926,None,912.091097028926,None,3s,914.8500892338343,915.850863344036,915.8424173290841,None,916.8423584969714,918.5675772218965,916.8423584969714,918.5675772218965,918.5590407880954,None,918.5590407880954,None,space,918.5590407880954,None,1.7181,919.0577580998652,None,0.3695387816987932,,,,,,,DEC024,001,2022_Dec_02_1535,2-25_cond_decay_EYE-try,2021.2.3,119.84302726361179,
right,1.0,0.75,0,1,0,1,0,1,0,1,0,0,1,1,9,,,,,,,,,,,,,,,3s,920.1502265520394,921.1508170249872,921.133706072811,None,922.1337994551286,925.0843603210524,922.1337994551286,925.0843603210524,925.0843603210524,None,925.0843603210524,None,space,925.0843603210524,None,2.9451,925.6500844638795,None,0.4355824338272214,,,,,,,DEC024,001,2022_Dec_02_1535,2-25_cond_decay_EYE-try,2021.2.3,119.84302726361179,
left,0.75,1.0,0,1,0,1,0,1,0,1,0,0,2,2,1,,,,,,,,,,,,,,,3s,926.7415195419453,927.7423654939048,927.7347310390323,None,928.7339093508199,929.4927751799114,928.7339093508199,929.4927751799114,929.4927751799114,None,929.4927751799114,None,None,929.4927751799114,None,0.7585,930.6159066278487,None,,,,,,,,DEC024,001,2022_Dec_02_1535,2-25_cond_decay_EYE-try,2021.2.3,119.84302726361179,
left,0.75,1.0,0,1,0,1,0,1,0,1,0,0,3,3,5,,,,,,,,,,,,,,,3s,931.7084042648785,932.7099844207987,932.6928182998672,None,933.7015307829715,934.5094325938262,933.7015307829715,934.5094325938262,934.5007283198647,None,934.5007283198647,None,space,934.5007283198647,None,0.807,935.0077507039532,None,0.3756444719620049,,,,,,,DEC024,001,2022_Dec_02_1535,2-25_cond_decay_EYE-try,2021.2.3,119.84302726361179,
right,0.75,1.0,1,1,0,1,0,1,0,1,0,0,4,4,7,,,,,,,,,,,,,,,3s,936.0995176201686,937.1011728630401,937.083943399135,None,938.0838772258721,939.4260010439903,938.0838772258721,939.4260010439903,939.4260010439903,None,939.4260010439903,None,space,939.4260010439903,None,1.3389,939.9931726991199,None,0.4423254677094519,,,,,,,DEC024,001,2022_Dec_02_1535,2-25_cond_decay_EYE-try,2021.2.3,119.84302726361179,
right,1.0,0.75,0,1,0,1,0,1,0,1,0,0,5,5,0,,,,,,,,,,,,,,,3s,941.0913709960878,942.0926697119139,942.0845665228553,None,943.084662719164,945.3090008120053,943.084662719164,945.3090008120053,945.301157228183,None,945.301157228183,None,space,945.301157228183,None,2.2205,945.7582720997743,None,0.3252982818521559,,,,,,,DEC024,001,2022_Dec_02_1535,2-25_cond_decay_EYE-try,2021.2.3,119.84302726361179,
left,0.75,1.0,0,1,0,1,0,1,0,1,0,0,6,6,8,,,,,,,,,,,,,,,3s,946.8503202777356,947.8516391199082,947.8426074488088,None,948.8426616308279,949.3845053310506,948.8426616308279,949.3845053310506,949.3845053310506,None,949.3845053310506,None,space,949.3845053310506,None,0.5419,950.0913834269159,None,0.5770986727438867,,,,,,,DEC024,001,2022_Dec_02_1535,2-25_cond_decay_EYE-try,2021.2.3,119.84302726361179,
left,0.75,1.0,0,1,0,1,0,1,0,1,0,0,7,7,2,,,,,,,,,,,,,,,3s,951.1760829868726,952.1766503271647,952.1674570869654,None,953.1682387641631,954.9515020758845,953.1682387641631,954.9515020758845,954.9515020758845,None,954.9515020758845,None,space,954.9515020758845,None,1.7821,955.4663285608403,None,0.38620618218556046,,,,,,,DEC024,001,2022_Dec_02_1535,2-25_cond_decay_EYE-try,2021.2.3,119.84302726361179,
right,1.0,0.75,0,1,0,1,0,1,0,1,0,0,8,8,4,,,,,,,,,,,,,,,3s,956.5584389329888,957.5595965641551,957.5513516641222,None,958.5513850231655,960.0591778447852,958.5513850231655,960.0591778447852,960.0513058621436,None,960.0513058621436,None,space,960.0513058621436,None,1.5044,960.5761152631603,None,0.3999687391333282,,,,,,,DEC024,001,2022_Dec_02_1535,2-25_cond_decay_EYE-try,2021.2.3,119.84302726361179,
left,1.0,0.75,1,1,0,1,0,1,0,1,0,0,9,9,6,,,,,,,,,,,,,,,3s,961.6756583778188,962.6766011291184,962.6684515629895,None,963.668329030741,965.3759601381607,963.668329030741,965.3759601381607,965.3684811089188,None,965.3684811089188,None,space,965.3684811089188,None,1.704,965.9514276287518,None,0.45863779820501804,,,,,,,DEC024,001,2022_Dec_02_1535,2-25_cond_decay_EYE-try,2021.2.3,119.84302726361179,
left,0.75,1.0,0,1,0,1,0,1,0,1,0,1,0,10,8,,,,,,,,,,,,,,,3s,967.0505153248087,968.0515062250197,968.0429916847497,None,969.0432949620299,970.5097647109069,969.0432949620299,970.5097647109069,970.5017985310405,None,970.5017985310405,None,space,970.5017985310405,None,1.4644,971.0079962951131,None,0.37549666268751025,,,,,,,DEC024,001,2022_Dec_02_1535,2-25_cond_decay_EYE-try,2021.2.3,119.84302726361179,
left,0.75,1.0,0,1,0,1,0,1,0,1,0,1,1,11,5,,,,,,,,,,,,,,,3s,972.1003960180096,973.1015177951194,973.0932089551352,None,974.0932257720269,974.426876984071,974.0932257720269,974.426876984071,974.426876984071,None,974.426876984071,None,space,974.426876984071,None,0.3328,974.9841405199841,None,0.4333198219537735,,,,,,,DEC024,001,2022_Dec_02_1535,2-25_cond_decay_EYE-try,2021.2.3,119.84302726361179,
left,0.75,1.0,0,1,0,1,0,1,0,1,0,1,2,12,1,,,,,,,,,,,,,,,3s,976.0765216238797,977.0762667870149,977.0680251591839,None,978.0680748657323,978.8684413279407,978.0680748657323,978.8684413279407,978.8684413279407,None,978.8684413279407,None,space,978.8684413279407,None,0.7999,979.4006340871565,None,0.4006898528896272,,,,,,,DEC024,001,2022_Dec_02_1535,2-25_cond_decay_EYE-try,2021.2.3,119.84302726361179,
right,1.0,0.75,0,1,0,1,0,1,0,1,0,1,3,13,0,,,,,,,,,,,,,,,3s,980.4930528239347,981.4934618677944,981.4849089668132,None,982.484330937732,983.9602810889482,982.484330937732,983.9602810889482,983.9602810889482,None,983.9602810889482,None,space,983.9602810889482,None,1.4726,984.4415704277344,None,0.35208251886069775,,,,,,,DEC024,001,2022_Dec_02_1535,2-25_cond_decay_EYE-try,2021.2.3,119.84302726361179,
right,0.75,1.0,1,1,0,1,0,1,0,1,0,1,4,14,7,,,,,,,,,,,,,,,3s,985.5337033979595,986.5351895759813,986.5270574451424,None,987.5263766800053,989.3931519058533,987.5263766800053,989.3931519058533,989.3852481949143,None,989.3852481949143,None,space,989.3852481949143,None,1.8603,989.8338424889371,None,0.3185794879682362,,,,,,,DEC024,001,2022_Dec_02_1535,2-25_cond_decay_EYE-try,2021.2.3,119.84302726361179,
right,1.0,0.75,0,1,0,1,0,1,0,1,0,1,5,15,4,,,,,,,,,,,,,,,3s,990.9172733980231,991.9181601358578,991.9097830639221,None,992.909927777946,993.3848897479475,992.909927777946,993.3848897479475,993.3848897479475,None,993.3848897479475,None,space,993.3848897479475,None,0.4743,993.9004569207318,None,0.3858002480119467,,,,,,,DEC024,001,2022_Dec_02_1535,2-25_cond_decay_EYE-try,2021.2.3,119.84302726361179,
left,1.0,0.75,1,1,0,1,0,1,0,1,0,1,6,16,6,,,,,,,,,,,,,,,3s,994.992098046001,995.9931527818553,995.9850802351721,None,996.9848561841063,997.9179119947366,996.9848561841063,997.9179119947366,997.9179119947366,None,997.9179119947366,None,space,997.9179119947366,None,0.9293,998.3935254039243,None,0.35108585376292467,,,,,,,DEC024,001,2022_Dec_02_1535,2-25_cond_decay_EYE-try,2021.2.3,119.84302726361179,
right,1.0,0.75,0,1,0,1,0,1,0,1,0,1,7,17,9,,,,,,,,,,,,,,,3s,999.4923219261691,1000.4930906170048,1000.4848234048113,None,1001.4848605301231,1004.3188464050181,1001.4848605301231,1004.3188464050181,1004.3188464050181,None,1004.3188464050181,None,space,1004.3188464050181,None,2.8333,1004.875516186934,None,0.42679395200684667,,,,,,,DEC024,001,2022_Dec_02_1535,2-25_cond_decay_EYE-try,2021.2.3,119.84302726361179,
right,1.0,0.75,0,1,0,1,0,1,0,1,0,1,8,18,3,,,,,,,,,,,,,,,3s,1005.9677839209326,1006.9690799061209,1006.9605903131887,None,1007.9604574418627,1009.6936411978677,1007.9604574418627,1009.6936411978677,1009.6849716948345,None,1009.6849716948345,None,space,1009.6849716948345,None,1.7265,1010.2926005069166,None,0.477903360966593,,,,,,,DEC024,001,2022_Dec_02_1535,2-25_cond_decay_EYE-try,2021.2.3,119.84302726361179,
left,0.75,1.0,0,1,0,1,0,1,0,1,0,1,9,19,2,,,,,,,,,,,,,,,3s,1011.3849200289696,1012.3848587390967,1012.376584249083,None,1013.3767268378288,1015.1763836629689,1013.3767268378288,1015.1763836629689,1015.1689130868763,None,1015.1689130868763,None,space,1015.1689130868763,None,1.7946,1015.6757877049968,None,0.3776507801376283,,,,,,,DEC024,001,2022_Dec_02_1535,2-25_cond_decay_EYE-try,2021.2.3,119.84302726361179,
,,,,1,0,1,0,1,0,1,0,,,,,,,,,,,,,,,,,,,,,,,,,,,,,,,,,,,,,,,,,,,,,DEC024,001,2022_Dec_02_1535,2-25_cond_decay_EYE-try,2021.2.3,119.84302726361179,
left,0.75,1.0,0,1,0,1,0,2,0,2,0,0,0,0,2,,,,,,,,,1016.5674611749128,None,1016.5674611749128,None,1016.5674611749128,None,10s,1019.2255218997598,1020.2270475379191,1020.2187942499295,None,1021.2186050130986,1028.8518956420012,1021.2186050130986,1028.8518956420012,1028.8432381399907,None,1028.8432381399907,None,space,1028.8432381399907,None,7.6277,1029.442767297849,None,0.46928641805425286,,,,,,,DEC024,001,2022_Dec_02_1535,2-25_cond_decay_EYE-try,2021.2.3,119.84302726361179,
right,1.0,0.75,0,1,0,1,0,2,0,2,0,0,1,1,5,,,,,,,,,,,,,,,10s,1030.5345255020075,1031.536051883828,1031.5274333199486,None,1032.52674816316,1037.4686768939719,1032.52674816316,1037.4686768939719,1037.4686768939719,None,1037.4686768939719,None,space,1037.4686768939719,None,4.9421,1038.083858020138,None,0.48590910201892257,,,,,,,DEC024,001,2022_Dec_02_1535,2-25_cond_decay_EYE-try,2021.2.3,119.84302726361179,
right,1.0,0.75,0,1,0,1,0,2,0,2,0,0,2,2,8,,,,,,,,,,,,,,,10s,1039.1763240559958,1040.1774715539068,1040.1690785791725,None,1041.1684025940485,1042.1602522721514,1041.1684025940485,1042.1602522721514,1042.1525000119582,None,1042.1525000119582,None,space,1042.1525000119582,None,0.9872,1042.8506900640205,None,0.5689551630057395,,,,,,,DEC024,001,2022_Dec_02_1535,2-25_cond_decay_EYE-try,2021.2.3,119.84302726361179,
left,0.75,1.0,0,1,0,1,0,2,0,2,0,0,3,3,9,,,,,,,,,,,,,,,10s,1043.9427911099046,1044.94380051177,1044.9273954280652,None,1045.9273609067313,1046.494120575022,1045.9273609067313,1046.494120575022,1046.494120575022,None,1046.494120575022,None,space,1046.494120575022,None,0.5609,1047.0020402381197,None,0.3830577270127833,,,,,,,DEC024,001,2022_Dec_02_1535,2-25_cond_decay_EYE-try,2021.2.3,119.84302726361179,
left,0.75,1.0,0,1,0,1,0,2,0,2,0,0,4,4,7,,,,,,,,,,,,,,,10s,1048.1004785750993,1049.1020187130198,1049.0854754359461,None,1050.0936190439388,1054.25255783787,1050.0936190439388,1054.25255783787,1054.2438550349325,None,1054.2438550349325,None,space,1054.2438550349325,None,4.1537,1055.2262836149894,None,0.85233065020293,,,,,,,DEC024,001,2022_Dec_02_1535,2-25_cond_decay_EYE-try,2021.2.3,119.84302726361179,
left,1.0,0.75,1,1,0,1,0,2,0,2,0,0,5,5,3,,,,,,,,,,,,,,,10s,1056.3177624279633,1057.3192407051101,1057.3111542500556,None,1058.310353315901,1060.3604288999923,1058.310353315901,1060.3604288999923,1060.3519581700675,1061.3519787001424,1060.3519581700675,1061.3519787001424,None,1060.3519581700675,1061.3519787001424,2.0462,1061.484868554864,None,,,,,,,,DEC024,001,2022_Dec_02_1535,2-25_cond_decay_EYE-try,2021.2.3,119.84302726361179,
right,1.0,0.75,0,1,0,1,0,2,0,2,0,0,6,6,6,,,,,,,,,,,,,,,10s,1062.575907814782,1063.5771962329745,1063.56108816294,None,1064.5611957898363,1064.8686925671063,1064.5611957898363,1064.8686925671063,1064.8686925671063,None,1064.8686925671063,None,None,1064.8686925671063,None,0.3033,1065.9860085537657,None,,,,,,,,DEC024,001,2022_Dec_02_1535,2-25_cond_decay_EYE-try,2021.2.3,119.84302726361179,
right,0.75,1.0,1,1,0,1,0,2,0,2,0,0,7,7,4,,,,,,,,,,,,,,,10s,1067.0846540541388,1068.0862092268653,1068.0778054608963,None,1069.0778118111193,1073.5438619181514,1069.0778118111193,1073.5438619181514,1073.5438619181514,None,1073.5438619181514,None,space,1073.5438619181514,None,4.4652,1074.1926948148757,None,0.5176207493059337,,,,,,,DEC024,001,2022_Dec_02_1535,2-25_cond_decay_EYE-try,2021.2.3,119.84302726361179,
left,0.75,1.0,0,1,0,1,0,2,0,2,0,0,8,8,0,,,,,,,,,,,,,,,10s,1075.2522186068818,1076.2523315479048,1076.244091161061,None,1077.244658080861,1086.0940924491733,1077.244658080861,1086.0940924491733,1086.0863540060818,None,1086.0863540060818,None,space,1086.0863540060818,None,8.8457,1086.9847433697432,None,0.7694371752440929,,,,,,,DEC024,001,2022_Dec_02_1535,2-25_cond_decay_EYE-try,2021.2.3,119.84302726361179,
left,0.75,1.0,0,1,0,1,0,2,0,2,0,0,9,9,1,,,,,,,,,,,,,,,10s,1088.0769775230438,1089.077358753886,1089.069198422134,None,1090.0689521590248,1096.2113213851117,1090.0689521590248,1096.2113213851117,1096.202547576744,None,1096.202547576744,None,space,1096.202547576744,None,6.1354,1096.6513064568862,None,0.31932227220386267,,,,,,,DEC024,001,2022_Dec_02_1535,2-25_cond_decay_EYE-try,2021.2.3,119.84302726361179,
left,0.75,1.0,0,1,0,1,0,2,0,2,0,1,0,10,7,,,,,,,,,,,,,,,10s,1097.7365978178568,1098.7359565580264,1098.7274179728702,None,1099.727788628079,1107.1525381631218,1099.727788628079,1107.1525381631218,1107.1525381631218,None,1107.1525381631218,None,space,1107.1525381631218,None,7.4219,1107.6763651301153,None,0.3942924118600786,,,,,,,DEC024,001,2022_Dec_02_1535,2-25_cond_decay_EYE-try,2021.2.3,119.84302726361179,
right,0.75,1.0,1,1,0,1,0,2,0,2,0,1,1,11,4,,,,,,,,,,,,,,,10s,1108.7767985267565,1109.7777413348667,1109.769410232082,None,1110.7695335848257,1113.6951128360815,1110.7695335848257,1113.6951128360815,1113.6862637139857,None,1113.6862637139857,None,space,1113.6862637139857,None,2.9221,1114.3365065860562,None,0.5260399309918284,,,,,,,DEC024,001,2022_Dec_02_1535,2-25_cond_decay_EYE-try,2021.2.3,119.84302726361179,
left,1.0,0.75,1,1,0,1,0,2,0,2,0,1,2,12,3,,,,,,,,,,,,,,,10s,1115.4368306160904,1116.4445844548754,1116.4274584841914,None,1117.4276384161785,1123.5863449848257,1117.4276384161785,1123.5863449848257,1123.5863449848257,None,1123.5863449848257,None,space,1123.5863449848257,None,6.1559,1124.1436683479697,None,0.43372328439727426,,,,,,,DEC024,001,2022_Dec_02_1535,2-25_cond_decay_EYE-try,2021.2.3,119.84302726361179,
left,0.75,1.0,0,1,0,1,0,2,0,2,0,1,3,13,9,,,,,,,,,,,,,,,10s,1125.2434593918733,1126.24468148686,1126.2362766680308,None,1127.2359648398124,1136.7703559231013,1127.2359648398124,1136.7703559231013,1136.7703559231013,None,1136.7703559231013,None,space,1136.7703559231013,None,9.5297,1137.3368219560944,None,0.4417735110037029,,,,,,,DEC024,001,2022_Dec_02_1535,2-25_cond_decay_EYE-try,2021.2.3,119.84302726361179,
right,1.0,0.75,0,1,0,1,0,2,0,2,0,1,4,14,2,,,,,,,,,,,,,,,10s,1138.4353408329189,1139.4364639688283,1139.4278282169253,None,1140.4278215570375,1146.0613819719292,1140.4278215570375,1146.0613819719292,1146.0533891888335,None,1146.0533891888335,None,space,1146.0533891888335,None,5.6302,1146.5611547529697,None,0.3834182471036911,,,,,,,DEC024,001,2022_Dec_02_1535,2-25_cond_decay_EYE-try,2021.2.3,119.84302726361179,
right,1.0,0.75,0,1,0,1,0,2,0,2,0,1,5,15,5,,,,,,,,,,,,,,,10s,1147.6604500981048,1148.6621255208738,1148.6535493847914,None,1149.6531255310401,1155.1287689651363,1149.6531255310401,1155.1287689651363,1155.1287689651363,None,1155.1287689651363,None,space,1155.1287689651363,None,5.4731,1155.6686582867987,None,0.4108166182413697,,,,,,,DEC024,001,2022_Dec_02_1535,2-25_cond_decay_EYE-try,2021.2.3,119.84302726361179,
left,0.75,1.0,0,1,0,1,0,2,0,2,0,1,6,16,0,,,,,,,,,,,,,,,10s,1156.7604208979756,1157.7621377459727,1157.7532456279732,None,1158.7530103009194,1166.6698024389334,1158.7530103009194,1166.6698024389334,1166.6622484941036,None,1166.6622484941036,None,space,1166.6622484941036,None,7.9106,1167.1859495858662,None,0.39397719223052263,,,,,,,DEC024,001,2022_Dec_02_1535,2-25_cond_decay_EYE-try,2021.2.3,119.84302726361179,
left,0.75,1.0,0,1,0,1,0,2,0,2,0,1,7,17,1,,,,,,,,,,,,,,,10s,1168.2436227570288,1169.2455715010874,1169.2281683478504,None,1170.228826217819,1176.203707889188,1170.228826217819,1176.203707889188,1176.203707889188,None,1176.203707889188,None,space,1176.203707889188,None,5.9735,1176.7036087289453,None,0.3750837380066514,,,,,,,DEC024,001,2022_Dec_02_1535,2-25_cond_decay_EYE-try,2021.2.3,119.84302726361179,
right,1.0,0.75,0,1,0,1,0,2,0,2,0,1,8,18,8,,,,,,,,,,,,,,,10s,1177.8037392511033,1178.803269840777,1178.7951638838276,None,1179.7950346870348,1180.4617675589398,1179.7950346870348,1180.4617675589398,1180.4617675589398,None,1180.4617675589398,None,None,1180.4617675589398,None,0.6639,1181.586433139164,None,,,,,,,,DEC024,001,2022_Dec_02_1535,2-25_cond_decay_EYE-try,2021.2.3,119.84302726361179,
right,1.0,0.75,0,1,0,1,0,2,0,2,0,1,9,19,6,,,,,,,,,,,,,,,10s,1182.6773814931512,1183.6790025439113,1183.6706556491554,None,1184.670595265925,1193.020782369189,1184.670595265925,1193.020782369189,1193.020782369189,None,1193.020782369189,None,space,1193.020782369189,None,8.3456,1193.5030072941445,None,0.35071486700326204,,,,,,,DEC024,001,2022_Dec_02_1535,2-25_cond_decay_EYE-try,2021.2.3,119.84302726361179,
,,,,1,0,1,0,2,0,2,0,,,,,,,,,,,,,,,,,,,,,,,,,,,,,,,,,,,,,,,,,,,,,DEC024,001,2022_Dec_02_1535,2-25_cond_decay_EYE-try,2021.2.3,119.84302726361179,
left,0.75,1.0,0,1,0,1,0,3,0,3,0,0,0,0,2,,,,,,,,,1194.3946026330814,None,1194.3946026330814,None,1194.3946026330814,None,5s,1196.5109952427447,1197.5117301461287,1197.5044275200926,None,1198.5035382760689,1199.795527256094,1198.5035382760689,1199.795527256094,1199.7867792840116,None,1199.7867792840116,None,space,1199.7867792840116,None,1.287,1200.3772808308713,None,0.45893675833940506,,,,,,,DEC024,001,2022_Dec_02_1535,2-25_cond_decay_EYE-try,2021.2.3,119.84302726361179,
left,0.75,1.0,0,1,0,1,0,3,0,3,0,0,1,1,4,,,,,,,,,,,,,,,5s,1201.469145604875,1202.4707379797474,1202.4616774101742,None,1203.4626299529336,1207.928978574928,1203.4626299529336,1207.928978574928,1207.928978574928,None,1207.928978574928,None,space,1207.928978574928,None,4.4673,1208.5455503230914,None,0.4922293107956648,,,,,,,DEC024,001,2022_Dec_02_1535,2-25_cond_decay_EYE-try,2021.2.3,119.84302726361179,
left,0.75,1.0,0,1,0,1,0,3,0,3,0,0,2,2,6,,,,,,,,,,,,,,,5s,1209.644459091127,1210.645569422748,1210.6375531111844,None,1211.6373685598373,1214.3793293079361,1211.6373685598373,1214.3793293079361,1214.3705673669465,None,1214.3705673669465,None,space,1214.3705673669465,None,2.7348,1214.8877387181856,None,0.3919845037162304,,,,,,,DEC024,001,2022_Dec_02_1535,2-25_cond_decay_EYE-try,2021.2.3,119.84302726361179,
left,0.75,1.0,0,1,0,1,0,3,0,3,0,0,3,3,5,,,,,,,,,,,,,,,5s,1215.9861134979874,1216.9875557040796,1216.9793063048273,None,1217.9790138951503,1222.8038740260527,1217.9790138951503,1222.8038740260527,1222.8038740260527,None,1222.8038740260527,None,space,1222.8038740260527,None,4.825,1223.4027542709373,None,0.4698362103663385,,,,,,,DEC024,001,2022_Dec_02_1535,2-25_cond_decay_EYE-try,2021.2.3,119.84302726361179,
right,1.0,0.75,0,1,0,1,0,3,0,3,0,0,4,4,0,,,,,,,,,,,,,,,5s,1224.4944113111123,1225.4954229779541,1225.4791116458364,None,1226.4793020719662,1230.9454349591397,1226.4793020719662,1230.9454349591397,1230.9454349591397,None,1230.9454349591397,None,space,1230.9454349591397,None,4.4645,1231.4276306750253,None,0.3536866130307317,,,,,,,DEC024,001,2022_Dec_02_1535,2-25_cond_decay_EYE-try,2021.2.3,119.84302726361179,
right,0.75,1.0,1,1,0,1,0,3,0,3,0,0,5,5,9,,,,,,,,,,,,,,,5s,1232.5195796480402,1233.5207009720616,1233.5122015867382,None,1234.5123630678281,1236.8955961908214,1234.5123630678281,1236.8955961908214,1236.887949472759,None,1236.887949472759,None,space,1236.887949472759,None,2.3777,1237.553464399185,None,0.5357125070877373,,,,,,,DEC024,001,2022_Dec_02_1535,2-25_cond_decay_EYE-try,2021.2.3,119.84302726361179,
right,1.0,0.75,0,1,0,1,0,3,0,3,0,0,6,6,1,,,,,,,,,,,,,,,5s,1238.6377355027944,1239.6378370351158,1239.629261483904,None,1240.6289554061368,1240.8457255209796,1240.6289554061368,1240.8457255209796,1240.8457255209796,None,1240.8457255209796,None,space,1240.8457255209796,None,0.21,1241.4197307871655,None,0.4438936482183635,,,,,,,DEC024,001,2022_Dec_02_1535,2-25_cond_decay_EYE-try,2021.2.3,119.84302726361179,
left,1.0,0.75,1,1,0,1,0,3,0,3,0,0,7,7,3,,,,,,,,,,,,,,,5s,1242.519263737835,1243.5211845058948,1243.513129949104,None,1244.5131216188893,1245.5290465909056,1244.5131216188893,1245.5290465909056,1245.5214129169472,None,1245.5214129169472,None,space,1245.5214129169472,None,1.0119,1246.0445411708206,None,0.3941970309242606,,,,,,,DEC024,001,2022_Dec_02_1535,2-25_cond_decay_EYE-try,2021.2.3,119.84302726361179,
right,1.0,0.75,0,1,0,1,0,3,0,3,0,0,8,8,8,,,,,,,,,,,,,,,5s,1247.1360318581574,1248.138209391851,1248.120817441959,1254.92126241792,1249.1211229241453,1253.9290434219874,1249.1211229241453,1253.9290434219874,1253.9290434219874,None,1253.9290434219874,None,None,1253.9290434219874,None,4.8015,1255.0531643540598,None,,,,,,,,DEC024,001,2022_Dec_02_1535,2-25_cond_decay_EYE-try,2021.2.3,119.84302726361179,
right,1.0,0.75,0,1,0,1,0,3,0,3,0,0,9,9,7,,,,,,,,,,,,,,,5s,1256.1380692748353,1257.1374179148115,1257.1298011471517,None,1258.129284095019,1261.0877364529297,1258.129284095019,1261.0877364529297,1261.0877364529297,None,1261.0877364529297,None,space,1261.0877364529297,None,2.9574,1261.644742026925,None,0.4280487820506096,,,,,,,DEC024,001,2022_Dec_02_1535,2-25_cond_decay_EYE-try,2021.2.3,119.84302726361179,
right,0.75,1.0,1,1,0,1,0,3,0,3,0,1,0,10,9,,,,,,,,,,,,,,,5s,1262.7364933690988,1263.7376230238006,1263.7300026640296,None,1264.7293811831623,1266.8549316669814,1264.7293811831623,1266.8549316669814,1266.8549316669814,None,1266.8549316669814,None,space,1266.8549316669814,None,2.1252,1267.4535322790034,None,0.46882572723552585,,,,,,,DEC024,001,2022_Dec_02_1535,2-25_cond_decay_EYE-try,2021.2.3,119.84302726361179,
left,0.75,1.0,0,1,0,1,0,3,0,3,0,1,1,11,6,,,,,,,,,,,,,,,5s,1268.5450792601332,1269.546398120001,1269.5292275608517,None,1270.5294463220052,1275.2799555631354,1270.5294463220052,1275.2799555631354,1275.2799555631354,None,1275.2799555631354,None,space,1275.2799555631354,None,4.7465,1275.9459204110317,None,0.5416686940006912,,,,,,,DEC024,001,2022_Dec_02_1535,2-25_cond_decay_EYE-try,2021.2.3,119.84302726361179,
left,0.75,1.0,0,1,0,1,0,3,0,3,0,1,2,12,2,,,,,,,,,,,,,,,5s,1277.0446883221157,1278.0461962297559,1278.0380401001312,None,1279.0376952309161,1282.1968314140104,1279.0376952309161,1282.1968314140104,1282.1968314140104,None,1282.1968314140104,None,None,1282.1968314140104,None,3.1566,1283.3197652571835,None,,,,,,,,DEC024,001,2022_Dec_02_1535,2-25_cond_decay_EYE-try,2021.2.3,119.84302726361179,
right,1.0,0.75,0,1,0,1,0,3,0,3,0,1,3,13,8,,,,,,,,,,,,,,,5s,1284.4203637470491,1285.4218143951148,1285.413620994892,None,1286.4127256837673,1289.8882530997507,1286.4127256837673,1289.8882530997507,1289.8882530997507,None,1289.8882530997507,None,space,1289.8882530997507,None,3.4707,1290.5781405968592,None,0.5604196470230818,,,,,,,DEC024,001,2022_Dec_02_1535,2-25_cond_decay_EYE-try,2021.2.3,119.84302726361179,
right,1.0,0.75,0,1,0,1,0,3,0,3,0,1,4,14,7,,,,,,,,,,,,,,,5s,1291.6619762200862,1292.6635922198184,1292.6554594589397,None,1293.6545608248562,1295.8798090568744,1293.6545608248562,1295.8798090568744,1295.8798090568744,1296.8796391100623,1295.8798090568744,1296.8796391100623,None,1295.8798090568744,1296.8796391100623,2.2258,1297.0118568129838,None,,,,,,,,DEC024,001,2022_Dec_02_1535,2-25_cond_decay_EYE-try,2021.2.3,119.84302726361179,
left,0.75,1.0,0,1,0,1,0,3,0,3,0,1,5,15,5,,,,,,,,,,,,,,,5s,1298.1038496699184,1299.1045589549467,1299.0965995718725,None,1300.096425239928,1303.521202701144,1300.096425239928,1303.521202701144,1303.5134349251166,None,1303.5134349251166,None,space,1303.5134349251166,None,3.4228,1304.028395616915,None,0.38532062619924545,,,,,,,DEC024,001,2022_Dec_02_1535,2-25_cond_decay_EYE-try,2021.2.3,119.84302726361179,
right,1.0,0.75,0,1,0,1,0,3,0,3,0,1,6,16,0,,,,,,,,,,,,,,,5s,1305.1283599217422,1306.1303775631823,1306.11332870787,None,1307.113211052958,1311.805006640032,1307.113211052958,1311.805006640032,1311.8131421529688,None,1311.8131421529688,None,space,1311.8131421529688,None,4.6916,1312.2366866669618,None,0.29476990504190326,,,,,,,DEC024,001,2022_Dec_02_1535,2-25_cond_decay_EYE-try,2021.2.3,119.84302726361179,
left,1.0,0.75,1,1,0,1,0,3,0,3,0,1,7,17,3,,,,,,,,,,,,,,,5s,1313.3288414310664,1314.3305000141263,1314.3133828188293,None,1315.3133101691492,1317.2218753579073,1315.3133101691492,1317.2218753579073,1317.2218753579073,None,1317.2218753579073,None,space,1317.2218753579073,None,1.9071,1317.705450518988,None,0.35873476695269346,,,,,,,DEC024,001,2022_Dec_02_1535,2-25_cond_decay_EYE-try,2021.2.3,119.84302726361179,
right,1.0,0.75,0,1,0,1,0,3,0,3,0,1,8,18,1,,,,,,,,,,,,,,,5s,1318.8052061321214,1319.8055456257425,1319.7964352597483,None,1320.7963407058269,1322.5133754159324,1320.7963407058269,1322.5133754159324,1322.5133754159324,None,1322.5133754159324,None,space,1322.5133754159324,None,1.7156,1323.0458827130497,None,0.40282478695735335,,,,,,,DEC024,001,2022_Dec_02_1535,2-25_cond_decay_EYE-try,2021.2.3,119.84302726361179,
left,0.75,1.0,0,1,0,1,0,3,0,3,0,1,9,19,4,,,,,,,,,,,,,,,5s,1324.137411955744,1325.138511443045,1325.1302680089138,None,1326.1302045979537,1329.7636462617666,1326.1302045979537,1329.7636462617666,1329.7636462617666,None,1329.7636462617666,None,space,1329.7636462617666,None,3.6346,1330.2887353040278,None,0.40048555191606283,,,,,,,DEC024,001,2022_Dec_02_1535,2-25_cond_decay_EYE-try,2021.2.3,119.84302726361179,
,,,,1,0,1,0,3,0,3,0,,,,,,,,,,,,,,,,,,,,,,,,,,,,,,,,,,,,,,,,,,,,,DEC024,001,2022_Dec_02_1535,2-25_cond_decay_EYE-try,2021.2.3,119.84302726361179,
,,,,1,0,1,0,,,,,,,,,,,,,,,,,,,,,,,,,,,,,,,,,,,,,,,,,,,1331.1873701480217,None,1331.1873701480217,None,1331.1873701480217,None,DEC024,001,2022_Dec_02_1535,2-25_cond_decay_EYE-try,2021.2.3,119.84302726361179,
right,0.75,1.0,1,2,0,2,0,0,0,0,0,0,0,0,9,,,,,,,,,1336.1878082067706,None,1336.1878082067706,None,1336.1878082067706,None,1s,1349.3712567738257,1350.3725371458568,1350.3556205700152,None,1351.3549353717826,1352.263504980132,1351.3549353717826,1352.263504980132,1352.263504980132,None,1352.263504980132,None,space,1352.263504980132,None,0.908,1353.0123803727329,None,0.6190902693197131,,,,,,,DEC024,001,2022_Dec_02_1535,2-25_cond_decay_EYE-try,2021.2.3,119.84302726361179,
right,1.0,0.75,0,2,0,2,0,0,0,0,0,0,1,1,3,,,,,,,,,,,,,,,1s,1354.0961822587997,1355.0967829041183,1355.0892605641857,None,1356.088930199854,1356.8557341750711,1356.088930199854,1356.8557341750711,1356.8557341750711,None,1356.8557341750711,None,space,1356.8557341750711,None,0.7649,1357.3460441948846,None,0.3603613041341305,,,,,,,DEC024,001,2022_Dec_02_1535,2-25_cond_decay_EYE-try,2021.2.3,119.84302726361179,
right,1.0,0.75,0,2,0,2,0,0,0,0,0,0,2,2,1,,,,,,,,,,,,,,,1s,1358.4303181767464,1359.4307918669656,1359.4223312437534,None,1360.421921072062,1361.3725620079786,1360.421921072062,1361.3725620079786,1361.363767889794,None,1361.363767889794,None,space,1361.363767889794,None,0.9436,1361.813193961978,None,0.31894452311098576,,,,,,,DEC024,001,2022_Dec_02_1535,2-25_cond_decay_EYE-try,2021.2.3,119.84302726361179,
right,1.0,0.75,0,2,0,2,0,0,0,0,0,0,3,3,5,,,,,,,,,,,,,,,1s,1362.903932550922,1363.9057146050036,1363.8886301987804,None,1364.889387155883,1365.397080320865,1364.889387155883,1365.397080320865,1365.397080320865,None,1365.397080320865,None,space,1365.397080320865,None,0.5091,1365.8380923871882,None,0.31701231515035033,,,,,,,DEC024,001,2022_Dec_02_1535,2-25_cond_decay_EYE-try,2021.2.3,119.84302726361179,
left,0.75,1.0,0,2,0,2,0,0,0,0,0,0,4,4,6,,,,,,,,,,,,,,,1s,1366.9459664309397,1367.9474247009493,1367.9308718941174,None,1368.9305576100014,1369.5972453798167,1368.9305576100014,1369.5972453798167,1369.5972453798167,None,1369.5972453798167,None,space,1369.5972453798167,None,0.6647,1370.0459418147802,None,0.3188876137137413,,,,,,,DEC024,001,2022_Dec_02_1535,2-25_cond_decay_EYE-try,2021.2.3,119.84302726361179,
right,1.0,0.75,0,2,0,2,0,0,0,0,0,0,5,5,2,,,,,,,,,,,,,,,1s,1371.1389787397347,1372.13920568116,1372.1312010907568,None,1373.1311335298233,1373.388968972955,1373.1311335298233,1373.388968972955,1373.3802779661492,None,1373.3802779661492,None,space,1373.3802779661492,None,0.2518,1373.8810719307512,None,0.3763054497539997,,,,,,,DEC024,001,2022_Dec_02_1535,2-25_cond_decay_EYE-try,2021.2.3,119.84302726361179,
left,0.75,1.0,0,2,0,2,0,0,0,0,0,0,6,6,4,,,,,,,,,,,,,,,1s,1374.979426402133,1375.980650443118,1375.9725260548294,None,1376.9726264397614,1377.405375563074,1376.9726264397614,1377.405375563074,1377.3975397041067,None,1377.3975397041067,None,space,1377.3975397041067,None,0.4272,1377.8210366517305,None,0.29448605608195066,,,,,,,DEC024,001,2022_Dec_02_1535,2-25_cond_decay_EYE-try,2021.2.3,119.84302726361179,
left,0.75,1.0,0,2,0,2,0,0,0,0,0,0,7,7,0,,,,,,,,,,,,,,,1s,1378.9042351241224,1379.9061647369526,1379.8976155631244,None,1380.897631903179,1381.1136806798168,1380.897631903179,1381.1136806798168,1381.1136806798168,None,1381.1136806798168,None,space,1381.1136806798168,None,0.2156,1381.5459470218047,None,0.3028986728750169,,,,,,,DEC024,001,2022_Dec_02_1535,2-25_cond_decay_EYE-try,2021.2.3,119.84302726361179,
left,1.0,0.75,1,2,0,2,0,0,0,0,0,0,8,8,8,,,,,,,,,,,,,,,1s,1382.6043200218119,1383.6056511970237,1383.5975470198318,None,1384.5973250507377,1385.1143687097356,1384.5973250507377,1385.1143687097356,1385.105772017967,None,1385.105772017967,None,space,1385.105772017967,None,0.5106,1385.596559016034,None,0.36085131112486124,,,,,,,DEC024,001,2022_Dec_02_1535,2-25_cond_decay_EYE-try,2021.2.3,119.84302726361179,
right,0.75,1.0,1,2,0,2,0,0,0,0,0,0,9,9,7,,,,,,,,,,,,,,,1s,1386.6634515998885,1387.6645360081457,1387.6561078559607,None,1388.655507131014,1389.58113129111,1388.655507131014,1389.58113129111,1389.58113129111,None,1389.58113129111,None,space,1389.58113129111,None,0.9246,1390.0302606718615,None,0.3188798460178077,,,,,,,DEC024,001,2022_Dec_02_1535,2-25_cond_decay_EYE-try,2021.2.3,119.84302726361179,
right,0.75,1.0,1,2,0,2,0,0,0,0,0,1,0,10,7,,,,,,,,,,,,,,,1s,1391.1214893227443,1392.122502904851,1392.1141857528128,None,1393.1143814269453,1393.3722462230362,1393.1143814269453,1393.3722462230362,1393.3722462230362,None,1393.3722462230362,None,space,1393.3722462230362,None,0.2585,1394.0048255347647,None,0.5024295561015606,,,,,,,DEC024,001,2022_Dec_02_1535,2-25_cond_decay_EYE-try,2021.2.3,119.84302726361179,
left,0.75,1.0,0,2,0,2,0,0,0,0,0,1,1,11,6,,,,,,,,,,,,,,,1s,1395.0967703079805,1396.0974123911,1396.0889431899413,None,1397.088956228923,1397.564058410935,1397.088956228923,1397.564058410935,1397.5563678420149,None,1397.5563678420149,None,space,1397.5563678420149,None,0.4698,1398.0893464297988,None,0.40847149677574635,,,,,,,DEC024,001,2022_Dec_02_1535,2-25_cond_decay_EYE-try,2021.2.3,119.84302726361179,
right,1.0,0.75,0,2,0,2,0,0,0,0,0,1,2,12,1,,,,,,,,,,,,,,,1s,1399.1880908338353,1400.1889574481174,1400.1732345721684,None,1401.1731490320526,1401.9559289640747,1401.1731490320526,1401.9559289640747,1401.9559289640747,None,1401.9559289640747,None,space,1401.9559289640747,None,0.7811,1402.4214644418098,None,0.33578534284606576,,,,,,,DEC024,001,2022_Dec_02_1535,2-25_cond_decay_EYE-try,2021.2.3,119.84302726361179,
right,1.0,0.75,0,2,0,2,0,0,0,0,0,1,3,13,3,,,,,,,,,,,,,,,1s,1403.5136064449325,1404.5143045349978,1404.5061403550208,None,1405.5063269250095,1406.2978785671294,1405.5063269250095,1406.2978785671294,1406.2978785671294,None,1406.2978785671294,None,space,1406.2978785671294,None,0.7916,1406.7464607357979,None,0.3187064048834145,,,,,,,DEC024,001,2022_Dec_02_1535,2-25_cond_decay_EYE-try,2021.2.3,119.84302726361179,
left,0.75,1.0,0,2,0,2,0,0,0,0,0,1,4,14,9,,,,,,,,,,,,,,,1s,1407.8464334988967,1408.8480192837305,1408.8317443719134,None,1409.8313709800132,1410.5806264397688,1409.8313709800132,1410.5806264397688,1410.5806264397688,None,1410.5806264397688,None,space,1410.5806264397688,None,0.7506,1411.0310263941064,None,0.326294950209558,,,,,,,DEC024,001,2022_Dec_02_1535,2-25_cond_decay_EYE-try,2021.2.3,119.84302726361179,
right,1.0,0.75,0,2,0,2,0,0,0,0,0,1,5,15,2,,,,,,,,,,,,,,,1s,1412.1302550821565,1413.131238181144,1413.1231622388586,None,1414.123261062894,1414.6396112600341,1414.123261062894,1414.6396112600341,1414.6309384489432,None,1414.6309384489432,None,space,1414.6309384489432,None,0.5098,1415.1815615091473,None,0.42773596523329616,,,,,,,DEC024,001,2022_Dec_02_1535,2-25_cond_decay_EYE-try,2021.2.3,119.84302726361179,
left,0.75,1.0,0,2,0,2,0,0,0,0,0,1,6,16,0,,,,,,,,,,,,,,,1s,1416.2881457670592,1417.2892967290245,1417.2810602169484,None,1418.2814022689126,1419.0229910789058,1418.2814022689126,1419.0229910789058,1419.0141295101494,1420.0141375837848,1419.0141295101494,1420.0141375837848,None,1419.0141295101494,1420.0141375837848,0.7403,1420.1472448869608,None,,,,,,,,DEC024,001,2022_Dec_02_1535,2-25_cond_decay_EYE-try,2021.2.3,119.84302726361179,
right,1.0,0.75,0,2,0,2,0,0,0,0,0,1,7,17,5,,,,,,,,,,,,,,,1s,1421.2387121231295,1422.2390457820147,1422.2309152097441,None,1423.231273513753,1424.1480763289146,1423.231273513753,1424.1480763289146,1424.1393996770494,None,1424.1393996770494,None,space,1424.1393996770494,None,0.9113,1424.713470267132,None,0.4443480409681797,,,,,,,DEC024,001,2022_Dec_02_1535,2-25_cond_decay_EYE-try,2021.2.3,119.84302726361179,
left,1.0,0.75,1,2,0,2,0,0,0,0,0,1,8,18,8,,,,,,,,,,,,,,,1s,1425.8054597340524,1426.8059945628047,1426.7979094530456,None,1427.797832170967,1428.5901397140697,1427.797832170967,1428.5901397140697,1428.5901397140697,None,1428.5901397140697,None,space,1428.5901397140697,None,0.7924,1429.1882720720023,None,0.46861580573022366,,,,,,,DEC024,001,2022_Dec_02_1535,2-25_cond_decay_EYE-try,2021.2.3,119.84302726361179,
left,0.75,1.0,0,2,0,2,0,0,0,0,0,1,9,19,4,,,,,,,,,,,,,,,1s,1430.2466931389645,1431.2481482117437,1431.2310004360043,None,1432.2310881307349,1432.9150949399918,1432.2310881307349,1432.9150949399918,1432.9150949399918,None,1432.9150949399918,None,space,1432.9150949399918,None,0.6804,1433.4723732420243,None,0.43351539224386215,,,,,,,DEC024,001,2022_Dec_02_1535,2-25_cond_decay_EYE-try,2021.2.3,119.84302726361179,
,,,,2,0,2,0,0,0,0,0,,,,,,,,,,,,,,,,,,,,,,,,,,,,,,,,,,,,,,,,,,,,,DEC024,001,2022_Dec_02_1535,2-25_cond_decay_EYE-try,2021.2.3,119.84302726361179,
left,0.75,1.0,0,2,0,2,0,1,0,1,0,0,0,0,3,,,,,,,,,1434.372076380998,None,1434.372076380998,None,1434.372076380998,None,3s,1435.789004076738,1436.7899877601303,1436.7728421278298,None,1437.7727606398985,1440.456503232941,1437.7727606398985,1440.456503232941,1440.456503232941,None,1440.456503232941,None,space,1440.456503232941,None,2.6798,1440.9969458729029,None,0.4103317679837346,,,,,,,DEC024,001,2022_Dec_02_1535,2-25_cond_decay_EYE-try,2021.2.3,119.84302726361179,
left,0.75,1.0,0,2,0,2,0,1,0,1,0,0,1,1,2,,,,,,,,,,,,,,,3s,1442.088467665948,1443.0900138658471,1443.08207803173,None,1444.081723623909,1446.6480353558436,1444.081723623909,1446.6480353558436,1446.6480353558436,None,1446.6480353558436,None,space,1446.6480353558436,None,2.5654,1447.14747360209,None,0.36999586364254355,,,,,,,DEC024,001,2022_Dec_02_1535,2-25_cond_decay_EYE-try,2021.2.3,119.84302726361179,
left,0.75,1.0,0,2,0,2,0,1,0,1,0,0,2,2,7,,,,,,,,,,,,,,,3s,1448.2385822650976,1449.2400252288207,1449.231828514021,None,1450.2316059200093,1452.4647169448435,1450.2316059200093,1452.4647169448435,1452.4647169448435,None,1452.4647169448435,None,space,1452.4647169448435,None,2.2317,1453.0548321078531,None,0.4590695439837873,,,,,,,DEC024,001,2022_Dec_02_1535,2-25_cond_decay_EYE-try,2021.2.3,119.84302726361179,
right,1.0,0.75,0,2,0,2,0,1,0,1,0,0,3,3,0,,,,,,,,,,,,,,,3s,1454.1467832699418,1455.148663001135,1455.1395853147842,None,1456.139569398947,1457.9068883359432,1456.139569398947,1457.9068883359432,1457.8983040391468,None,1457.8983040391468,None,space,1457.8983040391468,None,1.7601,1458.4151668557897,None,0.39236741000786424,,,,,,,DEC024,001,2022_Dec_02_1535,2-25_cond_decay_EYE-try,2021.2.3,119.84302726361179,
right,0.75,1.0,1,2,0,2,0,1,0,1,0,0,4,4,1,,,,,,,,,,,,,,,3s,1459.5140035371296,1460.514727750793,1460.5066433111206,None,1461.5064199687913,1462.8733920450322,1461.5064199687913,1462.8733920450322,1462.8655375200324,None,1462.8655375200324,None,space,1462.8655375200324,None,1.3622,1463.4152778899297,None,0.4255285249091685,,,,,,,DEC024,001,2022_Dec_02_1535,2-25_cond_decay_EYE-try,2021.2.3,119.84302726361179,
right,1.0,0.75,0,2,0,2,0,1,0,1,0,0,5,5,8,,,,,,,,,,,,,,,3s,1464.5133264567703,1465.5155843901448,1465.5063083339483,None,1466.5065492340364,1467.4985170820728,1466.5065492340364,1467.4985170820728,1467.4985170820728,None,1467.4985170820728,None,space,1467.4985170820728,None,0.9899,1467.9385349769145,None,0.3111205408349633,,,,,,,DEC024,001,2022_Dec_02_1535,2-25_cond_decay_EYE-try,2021.2.3,119.84302726361179,
left,0.75,1.0,0,2,0,2,0,1,0,1,0,0,6,6,9,,,,,,,,,,,,,,,3s,1469.0307082091458,1470.031798938755,1470.023759489879,None,1471.0231629260816,1473.6489437068813,1471.0231629260816,1473.6489437068813,1473.640166208148,None,1473.640166208148,None,space,1473.640166208148,None,2.6208,1474.105400659144,None,0.33598016668111086,,,,,,,DEC024,001,2022_Dec_02_1535,2-25_cond_decay_EYE-try,2021.2.3,119.84302726361179,
right,1.0,0.75,0,2,0,2,0,1,0,1,0,0,7,7,4,,,,,,,,,,,,,,,3s,1475.197454873938,1476.1986223021522,1476.1903282720596,None,1477.1905507100746,1477.7821474680677,1477.1905507100746,1477.7821474680677,1477.773733484093,1478.7734035751782,1477.773733484093,1478.7734035751782,None,1477.773733484093,1478.7734035751782,0.5854,1478.9057413409464,None,,,,,,,,DEC024,001,2022_Dec_02_1535,2-25_cond_decay_EYE-try,2021.2.3,119.84302726361179,
left,1.0,0.75,1,2,0,2,0,1,0,1,0,0,8,8,5,,,,,,,,,,,,,,,3s,1479.9983657547273,1480.9986695088446,1480.9902387987822,None,1481.9901079158299,1482.3901657871902,1481.9901079158299,1482.3901657871902,1482.3901657871902,None,1482.3901657871902,None,space,1482.3901657871902,None,0.3977,1482.9718365268782,None,0.4524988578632474,,,,,,,DEC024,001,2022_Dec_02_1535,2-25_cond_decay_EYE-try,2021.2.3,119.84302726361179,
left,0.75,1.0,0,2,0,2,0,1,0,1,0,0,9,9,6,,,,,,,,,,,,,,,3s,1484.0642377729528,1485.065354268998,1485.0564032858238,None,1486.0571648548357,1488.4152502771467,1486.0571648548357,1488.4152502771467,1488.406506379135,None,1488.406506379135,None,space,1488.406506379135,None,2.3553,1488.8654549629427,None,0.3347243871539831,,,,,,,DEC024,001,2022_Dec_02_1535,2-25_cond_decay_EYE-try,2021.2.3,119.84302726361179,
right,1.0,0.75,0,2,0,2,0,1,0,1,0,1,0,10,4,,,,,,,,,,,,,,,3s,1489.964257996995,1490.9654245870188,1490.9564936310053,None,1491.9568519429304,1493.623445562087,1491.9568519429304,1493.623445562087,1493.623445562087,None,1493.623445562087,None,space,1493.623445562087,None,1.6677,1494.1060680481605,None,0.35268005123361945,,,,,,,DEC024,001,2022_Dec_02_1535,2-25_cond_decay_EYE-try,2021.2.3,119.84302726361179,
left,0.75,1.0,0,2,0,2,0,1,0,1,0,1,1,11,6,,,,,,,,,,,,,,,3s,1495.1970872511156,1496.1983338571154,1496.1902136411518,None,1497.1906507308595,1498.432241581846,1497.1906507308595,1498.432241581846,1498.4238764499314,None,1498.4238764499314,None,space,1498.4238764499314,None,1.235,1498.981277926825,None,0.42712616408243775,,,,,,,DEC024,001,2022_Dec_02_1535,2-25_cond_decay_EYE-try,2021.2.3,119.84302726361179,
right,0.75,1.0,1,2,0,2,0,1,0,1,0,1,2,12,1,,,,,,,,,,,,,,,3s,1500.0742761110887,1501.074245205149,1501.0650394968688,None,1502.0650511458516,1504.790469669737,1502.0650511458516,1504.790469669737,1504.790469669737,None,1504.790469669737,None,space,1504.790469669737,None,2.7193,1505.2577021019533,None,0.3422929127700627,,,,,,,DEC024,001,2022_Dec_02_1535,2-25_cond_decay_EYE-try,2021.2.3,119.84302726361179,
left,0.75,1.0,0,2,0,2,0,1,0,1,0,1,3,13,2,,,,,,,,,,,,,,,3s,1506.3642825828865,1507.365327947773,1507.357028448023,None,1508.3571181511506,1508.6737878657877,1508.3571181511506,1508.6737878657877,1508.6652166508138,None,1508.6652166508138,None,space,1508.6652166508138,None,0.3109,1509.197227422148,None,0.4024729351513088,,,,,,,DEC024,001,2022_Dec_02_1535,2-25_cond_decay_EYE-try,2021.2.3,119.84302726361179,
left,0.75,1.0,0,2,0,2,0,1,0,1,0,1,4,14,7,,,,,,,,,,,,,,,3s,1510.288836686872,1511.29103957396,1511.2818567771465,None,1512.2826891099103,1513.123709123116,1512.2826891099103,1513.123709123116,1513.123709123116,None,1513.123709123116,None,space,1513.123709123116,None,0.8387,1513.6978485397995,None,0.44431630708277225,,,,,,,DEC024,001,2022_Dec_02_1535,2-25_cond_decay_EYE-try,2021.2.3,119.84302726361179,
right,1.0,0.75,0,2,0,2,0,1,0,1,0,1,5,15,0,,,,,,,,,,,,,,,3s,1514.7895699259825,1515.7907826988958,1515.7823623330332,None,1516.7820557840168,1518.2160960361362,1516.7820557840168,1518.2160960361362,1518.2160960361362,None,1518.2160960361362,None,space,1518.2160960361362,None,1.4318,1518.5893057947978,None,0.24388855416327715,,,,,,,DEC024,001,2022_Dec_02_1535,2-25_cond_decay_EYE-try,2021.2.3,119.84302726361179,
right,1.0,0.75,0,2,0,2,0,1,0,1,0,1,6,16,8,,,,,,,,,,,,,,,3s,1519.680554826744,1520.6820270619355,1520.6737151350826,None,1521.6743406937458,1522.8660338339396,1521.6743406937458,1522.8660338339396,1522.8572712391615,None,1522.8572712391615,None,space,1522.8572712391615,None,1.1841,1523.3396692518145,None,0.35251098638400435,,,,,,,DEC024,001,2022_Dec_02_1535,2-25_cond_decay_EYE-try,2021.2.3,119.84302726361179,
right,1.0,0.75,0,2,0,2,0,1,0,1,0,1,7,17,3,,,,,,,,,,,,,,,3s,1524.4231511447579,1525.4241806007922,1525.415806976147,None,1526.4159769597463,1528.2069017658941,1526.4159769597463,1528.2069017658941,1528.2069017658941,None,1528.2069017658941,None,space,1528.2069017658941,None,1.7905,1528.647468727082,None,0.30995726119726896,,,,,,,DEC024,001,2022_Dec_02_1535,2-25_cond_decay_EYE-try,2021.2.3,119.84302726361179,
left,1.0,0.75,1,2,0,2,0,1,0,1,0,1,8,18,5,,,,,,,,,,,,,,,3s,1529.7398186139762,1530.740795460064,1530.7327594067901,None,1531.7324982909486,1532.8659896920435,1531.7324982909486,1532.8659896920435,1532.8659896920435,None,1532.8659896920435,None,space,1532.8659896920435,None,1.1309,1533.3983689821325,None,0.401874708943069,,,,,,,DEC024,001,2022_Dec_02_1535,2-25_cond_decay_EYE-try,2021.2.3,119.84302726361179,
left,0.75,1.0,0,2,0,2,0,1,0,1,0,1,9,19,9,,,,,,,,,,,,,,,3s,1534.4811353008263,1535.4822244951501,1535.4738099779934,None,1536.4746463247575,1536.865428048186,1536.4746463247575,1536.865428048186,1536.865428048186,None,1536.865428048186,None,space,1536.865428048186,None,0.3921,1537.4742695288733,None,0.48405729699879885,,,,,,,DEC024,001,2022_Dec_02_1535,2-25_cond_decay_EYE-try,2021.2.3,119.84302726361179,
,,,,2,0,2,0,1,0,1,0,,,,,,,,,,,,,,,,,,,,,,,,,,,,,,,,,,,,,,,,,,,,,DEC024,001,2022_Dec_02_1535,2-25_cond_decay_EYE-try,2021.2.3,119.84302726361179,
right,1.0,0.75,0,2,0,2,0,2,0,2,0,0,0,0,4,,,,,,,,,1538.3731634099968,None,1538.3731634099968,None,1538.3731634099968,None,5s,1540.6912482688203,1541.690958281979,1541.6827139630914,None,1542.6825048369355,1544.3247372400947,1542.6825048369355,1544.3247372400947,1544.3247372400947,None,1544.3247372400947,None,space,1544.3247372400947,None,1.6421,1544.8229727428406,None,0.3673235452733934,,,,,,,DEC024,001,2022_Dec_02_1535,2-25_cond_decay_EYE-try,2021.2.3,119.84302726361179,
right,0.75,1.0,1,2,0,2,0,2,0,2,0,0,1,1,7,,,,,,,,,,,,,,,5s,1545.9150030161254,1546.9161989800632,1546.8993705399334,None,1547.8996631107293,1552.3244796828367,1547.8996631107293,1552.3244796828367,1552.3159336959943,None,1552.3159336959943,None,space,1552.3159336959943,None,4.4176,1552.8489949498326,None,0.408640758600086,,,,,,,DEC024,001,2022_Dec_02_1535,2-25_cond_decay_EYE-try,2021.2.3,119.84302726361179,
right,1.0,0.75,0,2,0,2,0,2,0,2,0,0,2,2,8,,,,,,,,,,,,,,,5s,1553.9485825560987,1554.9499189057387,1554.9407299640588,None,1555.9414722560905,1559.9407851197757,1555.9414722560905,1559.9407851197757,1559.9407851197757,None,1559.9407851197757,None,None,1559.9407851197757,None,3.9971,1561.0645876959898,None,,,,,,,,DEC024,001,2022_Dec_02_1535,2-25_cond_decay_EYE-try,2021.2.3,119.84302726361179,
left,0.75,1.0,0,2,0,2,0,2,0,2,0,0,3,3,9,,,,,,,,,,,,,,,5s,1562.1574481078424,1563.1581044481136,1563.1495823008008,None,1564.1491882000118,1566.4243126441725,1564.1491882000118,1566.4243126441725,1566.4243126441725,None,1566.4243126441725,None,space,1566.4243126441725,None,2.2739,1566.9737459160388,None,0.4195945169776678,,,,,,,DEC024,001,2022_Dec_02_1535,2-25_cond_decay_EYE-try,2021.2.3,119.84302726361179,
left,1.0,0.75,1,2,0,2,0,2,0,2,0,0,4,4,3,,,,,,,,,,,,,,,5s,1568.0653893928975,1569.0662856451236,1569.0578808891587,None,1570.058256985154,1570.3915710910223,1570.058256985154,1570.3915710910223,1570.383054823149,None,1570.383054823149,None,space,1570.383054823149,None,0.3293,1571.0235740570351,None,0.5168903819285333,,,,,,,DEC024,001,2022_Dec_02_1535,2-25_cond_decay_EYE-try,2021.2.3,119.84302726361179,
right,1.0,0.75,0,2,0,2,0,2,0,2,0,0,5,5,2,,,,,,,,,,,,,,,5s,1572.0984506499954,1573.0992871220224,1573.0917736580595,None,1574.0908588650636,1578.2164840470068,1574.0908588650636,1578.2164840470068,1578.2164840470068,None,1578.2164840470068,None,space,1578.2164840470068,None,4.1232,1578.7827988858335,None,0.44168758299201727,,,,,,,DEC024,001,2022_Dec_02_1535,2-25_cond_decay_EYE-try,2021.2.3,119.84302726361179,
left,0.75,1.0,0,2,0,2,0,2,0,2,0,0,6,6,1,,,,,,,,,,,,,,,5s,1579.881561908871,1580.8827214748599,1580.87430906808,None,1581.8742462671362,1584.8163183638826,1581.8742462671362,1584.8163183638826,1584.8163183638826,None,1584.8163183638826,None,space,1584.8163183638826,None,2.9385,1585.3150839339942,None,0.36937093222513795,,,,,,,DEC024,001,2022_Dec_02_1535,2-25_cond_decay_EYE-try,2021.2.3,119.84302726361179,
right,1.0,0.75,0,2,0,2,0,2,0,2,0,0,7,7,5,,,,,,,,,,,,,,,5s,1586.3820644929074,1587.3829406141303,1587.3659779168665,None,1588.3662050329149,1591.8251473708078,1588.3662050329149,1591.8251473708078,1591.832955036778,None,1591.832955036778,None,space,1591.832955036778,None,3.4589,1592.5746466428973,None,0.6175819239579141,,,,,,,DEC024,001,2022_Dec_02_1535,2-25_cond_decay_EYE-try,2021.2.3,119.84302726361179,
left,0.75,1.0,0,2,0,2,0,2,0,2,0,0,8,8,6,,,,,,,,,,,,,,,5s,1593.6817159820348,1594.68273425987,1594.6753506120294,None,1595.6744646569714,1598.1915305368602,1595.6744646569714,1598.1915305368602,1598.1915305368602,None,1598.1915305368602,None,None,1598.1915305368602,None,2.5153,1599.3154625268653,None,,,,,,,,DEC024,001,2022_Dec_02_1535,2-25_cond_decay_EYE-try,2021.2.3,119.84302726361179,
left,0.75,1.0,0,2,0,2,0,2,0,2,0,0,9,9,0,,,,,,,,,,,,,,,5s,1600.3986464468762,1601.4002094469033,1601.391060858965,None,1602.3918840480037,1604.8746053790674,1602.3918840480037,1604.8746053790674,1604.8667016257532,None,1604.8667016257532,None,space,1604.8667016257532,None,2.4769,1605.4484799248166,None,0.45021480694413185,,,,,,,DEC024,001,2022_Dec_02_1535,2-25_cond_decay_EYE-try,2021.2.3,119.84302726361179,
left,0.75,1.0,0,2,0,2,0,2,0,2,0,1,0,10,9,,,,,,,,,,,,,,,5s,1606.5065050218254,1607.5087608029135,1607.5001449347474,None,1608.500301242806,1613.4253338710405,1608.500301242806,1613.4253338710405,1613.4166569579393,None,1613.4166569579393,None,space,1613.4166569579393,None,4.9185,1613.9156795190647,None,0.3692812118679285,,,,,,,DEC024,001,2022_Dec_02_1535,2-25_cond_decay_EYE-try,2021.2.3,119.84302726361179,
left,0.75,1.0,0,2,0,2,0,2,0,2,0,1,1,11,1,,,,,,,,,,,,,,,5s,1615.0075759370811,1616.007874196861,1616.0004683570005,None,1616.9996235361323,1621.0166730000637,1616.9996235361323,1621.0166730000637,1621.0079338708892,None,1621.0079338708892,None,space,1621.0079338708892,None,4.0099,1621.7319724150002,None,0.5948725421912968,,,,,,,DEC024,001,2022_Dec_02_1535,2-25_cond_decay_EYE-try,2021.2.3,119.84302726361179,
left,0.75,1.0,0,2,0,2,0,2,0,2,0,1,2,12,6,,,,,,,,,,,,,,,5s,1622.8236011588015,1623.825058361981,1623.816782538779,None,1624.8164050681517,1629.4088550130837,1624.8164050681517,1629.4088550130837,1629.4088550130837,None,1629.4088550130837,None,space,1629.4088550130837,None,4.5896,1629.931776612997,None,0.39405144192278385,,,,,,,DEC024,001,2022_Dec_02_1535,2-25_cond_decay_EYE-try,2021.2.3,119.84302726361179,
right,1.0,0.75,0,2,0,2,0,2,0,2,0,1,3,13,2,,,,,,,,,,,,,,,5s,1631.0241274950095,1632.0247093741782,1632.0165310278535,None,1633.0172661300749,1636.5831433958374,1633.0172661300749,1636.5831433958374,1636.5753581081517,None,1636.5753581081517,None,space,1636.5753581081517,None,3.5639,1637.090328922961,None,0.38515326427295804,,,,,,,DEC024,001,2022_Dec_02_1535,2-25_cond_decay_EYE-try,2021.2.3,119.84302726361179,
left,1.0,0.75,1,2,0,2,0,2,0,2,0,1,4,14,3,,,,,,,,,,,,,,,5s,1638.182790264953,1639.1836954858154,1639.1754913977347,None,1640.1756444228813,1641.741631870158,1640.1756444228813,1641.741631870158,1641.741631870158,None,1641.741631870158,None,space,1641.741631870158,None,1.5648,1642.3074086271226,None,0.43608362786471844,,,,,,,DEC024,001,2022_Dec_02_1535,2-25_cond_decay_EYE-try,2021.2.3,119.84302726361179,
right,0.75,1.0,1,2,0,2,0,2,0,2,0,1,5,15,7,,,,,,,,,,,,,,,5s,1643.3996267467737,1644.4002395067364,1644.3919359701686,None,1645.3924852940254,1646.8422530489042,1645.3924852940254,1646.8422530489042,1646.8338030758314,None,1646.8338030758314,None,space,1646.8338030758314,None,1.4459,1647.4402573257685,None,0.47767870407551527,,,,,,,DEC024,001,2022_Dec_02_1535,2-25_cond_decay_EYE-try,2021.2.3,119.84302726361179,
right,1.0,0.75,0,2,0,2,0,2,0,2,0,1,6,16,8,,,,,,,,,,,,,,,5s,1648.5325265550055,1649.5341203710996,1649.5248948708177,None,1650.5253420649096,1652.616972296033,1650.5253420649096,1652.616972296033,1652.616972296033,None,1652.616972296033,None,space,1652.616972296033,None,2.0904,1653.2335236840881,None,0.4919722080230713,,,,,,,DEC024,001,2022_Dec_02_1535,2-25_cond_decay_EYE-try,2021.2.3,119.84302726361179,
left,0.75,1.0,0,2,0,2,0,2,0,2,0,1,7,17,0,,,,,,,,,,,,,,,5s,1654.3329034550115,1655.3337796721607,1655.325553401839,None,1656.3259709370323,1656.9338658899069,1656.3259709370323,1656.9338658899069,1656.9338658899069,None,1656.9338658899069,None,None,1656.9338658899069,None,0.6067,1658.0576100391336,None,,,,,,,,DEC024,001,2022_Dec_02_1535,2-25_cond_decay_EYE-try,2021.2.3,119.84302726361179,
right,1.0,0.75,0,2,0,2,0,2,0,2,0,1,8,18,4,,,,,,,,,,,,,,,5s,1659.1489876881242,1660.1505761528388,1660.1421638089232,None,1661.1417785300873,1662.4673839909956,1661.1417785300873,1662.4673839909956,1662.4585495260544,None,1662.4585495260544,None,space,1662.4585495260544,None,1.3201,1662.957995576784,None,0.36953580705448985,,,,,,,DEC024,001,2022_Dec_02_1535,2-25_cond_decay_EYE-try,2021.2.3,119.84302726361179,
right,1.0,0.75,0,2,0,2,0,2,0,2,0,1,9,19,5,,,,,,,,,,,,,,,5s,1664.0497688348405,1665.0511046801694,1665.0426068091765,None,1666.041913500987,1669.0837997449562,1666.041913500987,1669.0837997449562,1669.0837997449562,None,1669.0837997449562,None,space,1669.0837997449562,None,3.0417,1669.5675308597274,None,0.3594752508215606,,,,,,,DEC024,001,2022_Dec_02_1535,2-25_cond_decay_EYE-try,2021.2.3,119.84302726361179,
,,,,2,0,2,0,2,0,2,0,,,,,,,,,,,,,,,,,,,,,,,,,,,,,,,,,,,,,,,,,,,,,DEC024,001,2022_Dec_02_1535,2-25_cond_decay_EYE-try,2021.2.3,119.84302726361179,
right,1.0,0.75,0,2,0,2,0,3,0,3,0,0,0,0,4,,,,,,,,,1670.466548381839,None,1670.466548381839,None,1670.466548381839,None,10s,1673.0913115940057,1674.0926715931855,1674.0842238720506,None,1675.084130343981,1681.9256020267494,1675.084130343981,1681.9256020267494,1681.9177420511842,1682.9174146107398,1681.9177420511842,1682.9174146107398,None,1681.9177420511842,1682.9174146107398,6.8351,1683.0496808821335,None,,,,,,,,DEC024,001,2022_Dec_02_1535,2-25_cond_decay_EYE-try,2021.2.3,119.84302726361179,
right,1.0,0.75,0,2,0,2,0,3,0,3,0,0,1,1,6,,,,,,,,,,,,,,,10s,1684.1343930829316,1685.1338155209087,1685.1257153851911,None,1686.1258797240444,1691.391935364809,1686.1258797240444,1691.391935364809,1691.391935364809,None,1691.391935364809,None,space,1691.391935364809,None,5.2621,1692.0078299660236,None,0.48427214194089174,,,,,,,DEC024,001,2022_Dec_02_1535,2-25_cond_decay_EYE-try,2021.2.3,119.84302726361179,
left,1.0,0.75,1,2,0,2,0,3,0,3,0,0,2,2,2,,,,,,,,,,,,,,,10s,1693.0998778869398,1694.1007581180893,1694.0840900270268,None,1695.0837382501923,1702.9011177960783,1695.0837382501923,1702.9011177960783,1702.9011177960783,None,1702.9011177960783,None,space,1702.9011177960783,None,7.8129,1703.51579103712,None,0.4858338781632483,,,,,,,DEC024,001,2022_Dec_02_1535,2-25_cond_decay_EYE-try,2021.2.3,119.84302726361179,
right,1.0,0.75,0,2,0,2,0,3,0,3,0,0,3,3,5,,,,,,,,,,,,,,,10s,1704.607846396044,1705.6089657628909,1705.601584610995,None,1706.6007249448448,1707.792889074888,1706.6007249448448,1707.792889074888,1707.783906627912,1708.7841294347309,1707.783906627912,1708.7841294347309,None,1707.783906627912,1708.7841294347309,1.1868,1708.9165258640423,None,,,,,,,,DEC024,001,2022_Dec_02_1535,2-25_cond_decay_EYE-try,2021.2.3,119.84302726361179,
left,0.75,1.0,0,2,0,2,0,3,0,3,0,0,4,4,1,,,,,,,,,,,,,,,10s,1710.0078479661606,1711.0096625788137,1711.0005565071478,None,1712.0006041950546,1720.8923588539474,1712.0006041950546,1720.8923588539474,1720.8847097977996,None,1720.8847097977996,None,space,1720.8847097977996,None,8.8885,1721.408663761802,None,0.39183584228157997,,,,,,,DEC024,001,2022_Dec_02_1535,2-25_cond_decay_EYE-try,2021.2.3,119.84302726361179,
right,0.75,1.0,1,2,0,2,0,3,0,3,0,0,5,5,0,,,,,,,,,,,,,,,10s,1722.4995262147859,1723.501687543001,1723.492634201888,None,1724.4845308121294,1733.7342260149308,1724.4845308121294,1733.7342260149308,1733.7342260149308,None,1733.7342260149308,None,space,1733.7342260149308,None,9.248,1734.3512397469021,None,0.4928837879560888,,,,,,,DEC024,001,2022_Dec_02_1535,2-25_cond_decay_EYE-try,2021.2.3,119.84302726361179,
right,1.0,0.75,0,2,0,2,0,3,0,3,0,0,6,6,3,,,,,,,,,,,,,,,10s,1735.4427640680224,1736.443408465013,1736.4344056430273,None,1737.4342371108942,1738.2684993678704,1737.4342371108942,1738.2684993678704,1738.2684993678704,None,1738.2684993678704,None,None,1738.2684993678704,None,0.8294,1739.392058386933,None,,,,,,,,DEC024,001,2022_Dec_02_1535,2-25_cond_decay_EYE-try,2021.2.3,119.84302726361179,
right,1.0,0.75,0,2,0,2,0,3,0,3,0,0,7,7,8,,,,,,,,,,,,,,,10s,1740.4835582389496,1741.4846050348133,1741.4683798649348,None,1742.4685006830841,1743.9011581460945,1742.4685006830841,1743.9011581460945,1743.9011581460945,None,1743.9011581460945,None,space,1743.9011581460945,None,1.4293,1744.4502457338385,None,0.4193110018968582,,,,,,,DEC024,001,2022_Dec_02_1535,2-25_cond_decay_EYE-try,2021.2.3,119.84302726361179,
left,0.75,1.0,0,2,0,2,0,3,0,3,0,0,8,8,7,,,,,,,,,,,,,,,10s,1745.5416139550507,1746.5432016258128,1746.5346367619932,None,1747.5343293407932,1755.2094813687727,1747.5343293407932,1755.2094813687727,1755.2094813687727,None,1755.2094813687727,None,space,1755.2094813687727,None,7.6732,1755.751430018805,None,0.41746432380750775,,,,,,,DEC024,001,2022_Dec_02_1535,2-25_cond_decay_EYE-try,2021.2.3,119.84302726361179,
left,0.75,1.0,0,2,0,2,0,3,0,3,0,0,9,9,9,,,,,,,,,,,,,,,10s,1756.8500689878128,1757.8520205938257,1757.8434829879552,None,1758.8433065009303,1761.1430376130156,1758.8433065009303,1761.1430376130156,1761.1430376130156,None,1761.1430376130156,None,None,1761.1430376130156,None,2.2976,1762.2674796190113,None,,,,,,,,DEC024,001,2022_Dec_02_1535,2-25_cond_decay_EYE-try,2021.2.3,119.84302726361179,
left,1.0,0.75,1,2,0,2,0,3,0,3,0,1,0,10,2,,,,,,,,,,,,,,,10s,1763.3587226867676,1764.3603702099063,1764.3434176319279,None,1765.3428585380316,1773.2687415997498,1765.3428585380316,1773.2687415997498,1773.2687415997498,None,1773.2687415997498,None,space,1773.2687415997498,None,7.9216,1773.8083333051763,None,0.4084944589994848,,,,,,,DEC024,001,2022_Dec_02_1535,2-25_cond_decay_EYE-try,2021.2.3,119.84302726361179,
left,0.75,1.0,0,2,0,2,0,3,0,3,0,1,1,11,1,,,,,,,,,,,,,,,10s,1774.893872993067,1775.893043546006,1775.8849638970569,None,1776.8851981819607,1783.426873718854,1776.8851981819607,1783.426873718854,1783.426873718854,None,1783.426873718854,None,space,1783.426873718854,None,6.5403,1783.9432791117579,None,0.39223145274445415,,,,,,,DEC024,001,2022_Dec_02_1535,2-25_cond_decay_EYE-try,2021.2.3,119.84302726361179,
right,1.0,0.75,0,2,0,2,0,3,0,3,0,1,2,12,8,,,,,,,,,,,,,,,10s,1785.041862830054,1786.0438814098015,1786.0346784498543,None,1787.0349921300076,1794.3357377299108,1787.0349921300076,1794.3357377299108,1794.3269005897455,None,1794.3269005897455,None,space,1794.3269005897455,None,7.295,1794.900803965982,None,0.44403987005352974,,,,,,,DEC024,001,2022_Dec_02_1535,2-25_cond_decay_EYE-try,2021.2.3,119.84302726361179,
left,0.75,1.0,0,2,0,2,0,3,0,3,0,1,3,13,4,,,,,,,,,,,,,,,10s,1795.993966922164,1796.9939138181508,1796.9847947759554,None,1797.9856589790434,1798.743268076796,1797.9856589790434,1798.743268076796,1798.73558678478,None,1798.73558678478,None,space,1798.73558678478,None,0.7547,1799.3348862878047,None,0.47543267672881484,,,,,,,DEC024,001,2022_Dec_02_1535,2-25_cond_decay_EYE-try,2021.2.3,119.84302726361179,
left,0.75,1.0,0,2,0,2,0,3,0,3,0,1,4,14,9,,,,,,,,,,,,,,,10s,1800.4336872547865,1801.4350905418396,1801.4275215389207,None,1802.4269295698032,1807.8105717389844,1802.4269295698032,1807.8105717389844,1807.8105717389844,None,1807.8105717389844,None,space,1807.8105717389844,None,5.3826,1808.3525342000648,None,0.41689752601087093,,,,,,,DEC024,001,2022_Dec_02_1535,2-25_cond_decay_EYE-try,2021.2.3,119.84302726361179,
right,1.0,0.75,0,2,0,2,0,3,0,3,0,1,5,15,6,,,,,,,,,,,,,,,10s,1809.4515010998584,1810.4525201260112,1810.4441529279575,None,1811.4438284458593,1814.9854566869326,1811.4438284458593,1814.9854566869326,1814.9767517731525,None,1814.9767517731525,None,space,1814.9767517731525,None,3.5354,1815.6505202138796,None,0.5453486279584467,,,,,,,DEC024,001,2022_Dec_02_1535,2-25_cond_decay_EYE-try,2021.2.3,119.84302726361179,
right,1.0,0.75,0,2,0,2,0,3,0,3,0,1,6,16,3,,,,,,,,,,,,,,,10s,1816.7422416000627,1817.7435339349322,1817.7352983211167,None,1818.7358606369235,1826.3185875648633,1818.7358606369235,1826.3185875648633,1826.3185875648633,None,1826.3185875648633,None,space,1826.3185875648633,None,7.5811,1826.942952663172,None,0.49309289501979947,,,,,,,DEC024,001,2022_Dec_02_1535,2-25_cond_decay_EYE-try,2021.2.3,119.84302726361179,
