attn_cue,left_ob,right_ob,congruent,runs.thisRepN,runs.thisTrialN,runs.thisN,runs.thisIndex,blocks.thisRepN,blocks.thisTrialN,blocks.thisN,blocks.thisIndex,trials.thisRepN,trials.thisTrialN,trials.thisN,trials.thisIndex,welcome.started,welcome.stopped,text_2.started,text_2.stopped,init_key_resp.keys,init_key_resp.rt,init_key_resp.started,init_key_resp.stopped,text_3.started,text_3.stopped,text_4.started,text_4.stopped,text_5.started,text_5.stopped,block_num,texter.started,texter.stopped,cross.started,cross.stopped,left_star.started,left_star.stopped,right_star.started,right_star.stopped,left_2.started,left_2.stopped,right_2.started,right_2.stopped,key_resp.keys,key_resp.rt,key_resp.started,key_resp.stopped,Rand Tim,text.started,text.stopped,end.started,end.stopped,text_6.started,text_6.stopped,text_7.started,text_7.stopped,participant,session,date,expName,psychopyVersion,frameRate,
,,,,,,,,,,,,,,,,11.780502340756357,None,11.780502340756357,None,space,1.0697797238826752,11.780502340756357,None,,,,,,,,,,,,,,,,,,,,,,,,,,,,,,,,,003-1,001,2022_Apr_06_1523,2-25_cond_decay,2021.2.3,164.68656296418624,
right,1.0,0.75,0,0,0,0,0,0,0,0,0,0,0,0,7,,,,,,,,,12.877873498015106,None,12.877873498015106,None,12.877873498015106,None,1s,13.950913431122899,14.951903280802071,14.946072599850595,None,15.946114589925855,16.441453422885388,15.946114589925855,16.441453422885388,16.434907042887062,None,16.434907042887062,None,space,0.3193736867979169,16.434907042887062,None,0.4883,16.780476505868137,None,,,,,,,003-1,001,2022_Apr_06_1523,2-25_cond_decay,2021.2.3,164.68656296418624,
right,0.75,1.0,1,0,0,0,0,0,0,0,0,0,1,1,1,,,,,,,,,,,,,,,1s,17.7704128138721,18.776397054083645,18.763395804911852,None,19.76380058284849,20.392681681085378,19.76380058284849,20.392681681085378,20.386232777033,None,20.386232777033,None,space,0.4160485379397869,20.386232777033,None,0.6199,20.823313804809004,None,,,,,,,003-1,001,2022_Apr_06_1523,2-25_cond_decay,2021.2.3,164.68656296418624,
left,0.75,1.0,0,0,0,0,0,0,0,0,0,0,2,2,0,,,,,,,,,,,,,,,1s,21.83043154887855,22.83032605610788,22.824461856856942,None,23.82483601476997,24.448282323777676,23.82483601476997,24.448282323777676,24.441781269852072,None,24.441781269852072,None,space,0.29650975903496146,24.441781269852072,None,0.617,24.750648396089673,None,,,,,,,003-1,001,2022_Apr_06_1523,2-25_cond_decay,2021.2.3,164.68656296418624,
left,0.75,1.0,0,0,0,0,0,0,0,0,0,0,3,3,4,,,,,,,,,,,,,,,1s,25.75111919408664,26.751832304988056,26.746092974673957,None,27.745107772760093,27.988370741717517,27.745107772760093,27.988370741717517,27.988370741717517,None,27.988370741717517,None,space,0.38991009490564466,27.988370741717517,None,0.2417,28.398338485043496,None,,,,,,,003-1,001,2022_Apr_06_1523,2-25_cond_decay,2021.2.3,164.68656296418624,
left,0.75,1.0,0,0,0,0,0,0,0,0,0,0,4,4,9,,,,,,,,,,,,,,,1s,29.4006315828301,30.400159834884107,30.394367288798094,None,31.39423444774002,31.93323800712824,31.39423444774002,31.93323800712824,31.927802049089223,None,31.927802049089223,None,space,0.3304391880519688,31.927802049089223,None,0.5337,32.27157499874011,None,,,,,,,003-1,001,2022_Apr_06_1523,2-25_cond_decay,2021.2.3,164.68656296418624,
right,1.0,0.75,0,0,0,0,0,0,0,0,0,0,5,5,8,,,,,,,,,,,,,,,1s,33.27774951374158,34.27890059677884,34.273072408977896,None,35.272267129737884,35.745374189689755,35.272267129737884,35.745374189689755,35.73991734767333,None,35.73991734767333,None,space,0.31036777468398213,35.73991734767333,None,0.4708,36.07155575603247,None,,,,,,,003-1,001,2022_Apr_06_1523,2-25_cond_decay,2021.2.3,164.68656296418624,
right,1.0,0.75,0,0,0,0,0,0,0,0,0,0,6,6,5,,,,,,,,,,,,,,,1s,37.07240633200854,38.07284990372136,38.0660187699832,None,39.06625183112919,39.295750834047794,39.06625183112919,39.295750834047794,39.28931001806632,None,39.28931001806632,None,space,0.3609625240787864,39.28931001806632,None,0.2217,39.671843758784235,None,,,,,,,003-1,001,2022_Apr_06_1523,2-25_cond_decay,2021.2.3,164.68656296418624,
right,1.0,0.75,0,0,0,0,0,0,0,0,0,0,7,7,6,,,,,,,,,,,,,,,1s,40.67296383297071,41.672344502061605,41.66654156288132,None,42.667003966867924,42.842095501720905,42.667003966867924,42.842095501720905,42.83543170010671,None,42.83543170010671,None,space,0.3587774457409978,42.83543170010671,None,0.1672,43.21623117104173,None,,,,,,,003-1,001,2022_Apr_06_1523,2-25_cond_decay,2021.2.3,164.68656296418624,
left,1.0,0.75,1,0,0,0,0,0,0,0,0,0,8,8,3,,,,,,,,,,,,,,,1s,44.2230354398489,45.22436403296888,45.21758807590231,None,46.21805996494368,47.12708804290742,46.21805996494368,47.12708804290742,47.12708804290742,None,47.12708804290742,None,space,0.3071553441695869,47.12708804290742,None,0.9074,47.446558081079274,None,,,,,,,003-1,001,2022_Apr_06_1523,2-25_cond_decay,2021.2.3,164.68656296418624,
left,0.75,1.0,0,0,0,0,0,0,0,0,0,0,9,9,2,,,,,,,,,,,,,,,1s,48.44860361004248,49.44863125681877,49.441718604881316,None,50.44204633682966,50.763736391905695,50.44204633682966,50.763736391905695,50.763736391905695,None,50.763736391905695,None,space,0.3664984372444451,50.763736391905695,None,0.3208,51.14430761709809,None,,,,,,,003-1,001,2022_Apr_06_1523,2-25_cond_decay,2021.2.3,164.68656296418624,
right,1.0,0.75,0,0,0,0,0,0,0,0,0,1,0,10,6,,,,,,,,,,,,,,,1s,52.15017931070179,53.15131805790588,53.14541614893824,None,54.14569140970707,54.90144426980987,54.14569140970707,54.90144426980987,54.89487276505679,None,54.89487276505679,None,space,0.24347608722746372,54.89487276505679,None,0.7492,55.150191164109856,None,,,,,,,003-1,001,2022_Apr_06_1523,2-25_cond_decay,2021.2.3,164.68656296418624,
left,1.0,0.75,1,0,0,0,0,0,0,0,0,1,1,11,3,,,,,,,,,,,,,,,1s,56.156539854127914,57.157138475682586,57.15137503808364,None,58.15071938186884,58.95166686596349,58.15071938186884,58.95166686596349,58.95166686596349,None,58.95166686596349,None,space,0.2665491537190974,58.95166686596349,None,0.8013,59.24037902383134,None,,,,,,,003-1,001,2022_Apr_06_1523,2-25_cond_decay,2021.2.3,164.68656296418624,
right,0.75,1.0,1,0,0,0,0,0,0,0,0,1,2,12,1,,,,,,,,,,,,,,,1s,60.247001903131604,61.247731322888285,61.24192888569087,None,62.24180722609162,62.79274210194126,62.24180722609162,62.79274210194126,62.78586368681863,None,62.78586368681863,None,space,0.2644286993891001,62.78586368681863,None,0.5429,63.07060310477391,None,,,,,,,003-1,001,2022_Apr_06_1523,2-25_cond_decay,2021.2.3,164.68656296418624,
right,1.0,0.75,0,0,0,0,0,0,0,0,0,1,3,13,5,,,,,,,,,,,,,,,1s,64.07267636805773,65.07182247471064,65.06607670802623,None,66.0664834138006,66.63488196069375,66.0664834138006,66.63488196069375,66.62841753102839,None,66.62841753102839,None,space,0.3338756961748004,66.62841753102839,None,0.5591,66.97412190679461,None,,,,,,,003-1,001,2022_Apr_06_1523,2-25_cond_decay,2021.2.3,164.68656296418624,
right,1.0,0.75,0,0,0,0,0,0,0,0,0,1,4,14,7,,,,,,,,,,,,,,,1s,67.97472874680534,68.9751932467334,68.9694600389339,None,69.96874200599268,70.23577892873436,69.96874200599268,70.23577892873436,70.23577892873436,None,70.23577892873436,None,space,0.3185235350392759,70.23577892873436,None,0.2666,70.5677154888399,None,,,,,,,003-1,001,2022_Apr_06_1523,2-25_cond_decay,2021.2.3,164.68656296418624,
left,0.75,1.0,0,0,0,0,0,0,0,0,0,1,5,15,9,,,,,,,,,,,,,,,1s,71.57360641192645,72.57555396482348,72.5686756609939,None,73.56945869605988,73.95076616574079,73.56945869605988,73.95076616574079,73.95076616574079,None,73.95076616574079,None,space,0.28352817613631487,73.95076616574079,None,0.3815,74.24643489113078,None,,,,,,,003-1,001,2022_Apr_06_1523,2-25_cond_decay,2021.2.3,164.68656296418624,
left,0.75,1.0,0,0,0,0,0,0,0,0,0,1,6,16,0,,,,,,,,,,,,,,,1s,75.24787099007517,76.24756042798981,76.24184045102447,None,77.24178439099342,77.90823152894154,77.24178439099342,77.90823152894154,77.90823152894154,None,77.90823152894154,None,space,0.29404834378510714,77.90823152894154,None,0.6672,78.21682430896908,None,,,,,,,003-1,001,2022_Apr_06_1523,2-25_cond_decay,2021.2.3,164.68656296418624,
right,1.0,0.75,0,0,0,0,0,0,0,0,0,1,7,17,8,,,,,,,,,,,,,,,1s,79.22185530792922,80.22383297095075,80.21710423193872,None,81.21768445475027,81.77408654801548,81.21768445475027,81.77408654801548,81.76762927277014,None,81.76762927277014,None,space,0.28266869904473424,81.76762927277014,None,0.547,82.06608464196324,None,,,,,,,003-1,001,2022_Apr_06_1523,2-25_cond_decay,2021.2.3,164.68656296418624,
left,0.75,1.0,0,0,0,0,0,0,0,0,0,1,8,18,2,,,,,,,,,,,,,,,1s,83.07059503206983,84.07177940476686,84.06601635785773,None,85.0654571200721,85.47838500002399,85.0654571200721,85.47838500002399,85.47838500002399,None,85.47838500002399,None,space,0.25991855980828404,85.47838500002399,None,0.411,85.74981295270845,None,,,,,,,003-1,001,2022_Apr_06_1523,2-25_cond_decay,2021.2.3,164.68656296418624,
left,0.75,1.0,0,0,0,0,0,0,0,0,0,1,9,19,4,,,,,,,,,,,,,,,1s,86.75084481900558,87.7508412366733,87.74511412903666,None,88.74443336483091,89.44144448684528,88.74443336483091,89.44144448684528,89.43596952967346,None,89.43596952967346,None,space,0.24632601300254464,89.43596952967346,None,0.6921,89.69460096675903,None,,,,,,,003-1,001,2022_Apr_06_1523,2-25_cond_decay,2021.2.3,164.68656296418624,
,,,,0,0,0,0,0,0,0,0,,,,,,,,,,,,,,,,,,,,,,,,,,,,,,,,,,,,,,,,,,,,,003-1,001,2022_Apr_06_1523,2-25_cond_decay,2021.2.3,164.68656296418624,
right,1.0,0.75,0,0,0,0,0,1,0,1,0,0,0,0,4,,,,,,,,,90.70703649707139,None,90.70703649707139,None,90.70703649707139,None,10s,93.54902067407966,94.55093831568956,94.53806469170377,None,95.53799331979826,101.99924596771598,95.53799331979826,101.99924596771598,101.99924596771598,None,101.99924596771598,None,None,,101.99924596771598,None,6.4582,103.01556330593303,None,,,,,,,003-1,001,2022_Apr_06_1523,2-25_cond_decay,2021.2.3,164.68656296418624,
right,1.0,0.75,0,0,0,0,0,1,0,1,0,0,1,1,8,,,,,,,,,,,,,,,10s,104.00538154877722,105.00539227575064,104.99865561490878,None,105.99903128389269,110.60477839084342,105.99903128389269,110.60477839084342,110.59817703673616,None,110.59817703673616,None,space,0.2841294873505831,110.59817703673616,None,4.5966,110.90087197395042,None,,,,,,,003-1,001,2022_Apr_06_1523,2-25_cond_decay,2021.2.3,164.68656296418624,
left,0.75,1.0,0,0,0,0,0,1,0,1,0,0,2,2,1,,,,,,,,,,,,,,,10s,111.90089084208012,112.90171744069085,112.89601209294051,None,113.89589574700221,116.53806066978723,113.89589574700221,116.53806066978723,116.53806066978723,None,116.53806066978723,None,space,0.2962449658662081,116.53806066978723,None,2.6419,116.84641165612265,None,,,,,,,003-1,001,2022_Apr_06_1523,2-25_cond_decay,2021.2.3,164.68656296418624,
left,0.75,1.0,0,0,0,0,0,1,0,1,0,0,3,3,2,,,,,,,,,,,,,,,10s,117.84711570478976,118.84674385283142,118.84098384575918,None,119.84120309911668,123.6714996797964,119.84120309911668,123.6714996797964,123.6714996797964,None,123.6714996797964,None,space,0.39478284073993564,123.6714996797964,None,3.8308,124.0840510269627,None,,,,,,,003-1,001,2022_Apr_06_1523,2-25_cond_decay,2021.2.3,164.68656296418624,
left,1.0,0.75,1,0,0,0,0,1,0,1,0,0,4,4,5,,,,,,,,,,,,,,,10s,125.08351650787517,126.08389897178859,126.07701320387423,None,127.07712573977187,133.4465193101205,127.07712573977187,133.4465193101205,133.4465193101205,None,133.4465193101205,None,space,0.6197757581248879,133.4465193101205,None,6.369,134.0833614016883,None,,,,,,,003-1,001,2022_Apr_06_1523,2-25_cond_decay,2021.2.3,164.68656296418624,
right,1.0,0.75,0,0,0,0,0,1,0,1,0,0,5,5,3,,,,,,,,,,,,,,,10s,135.08843523589894,136.08943970594555,136.08375421212986,None,137.08344797277823,138.77974186697975,137.08344797277823,138.77974186697975,138.77974186697975,None,138.77974186697975,None,space,0.318563612177968,138.77974186697975,None,1.6973,139.11806976608932,None,,,,,,,003-1,001,2022_Apr_06_1523,2-25_cond_decay,2021.2.3,164.68656296418624,
left,0.75,1.0,0,0,0,0,0,1,0,1,0,0,6,6,7,,,,,,,,,,,,,,,10s,140.12409722991288,141.12530494574457,141.11947925388813,None,142.12007158389315,148.31204177299514,142.12007158389315,148.31204177299514,148.30566585808992,None,148.30566585808992,None,space,0.36057411320507526,148.30566585808992,None,6.1853,148.68325244775042,None,,,,,,,003-1,001,2022_Apr_06_1523,2-25_cond_decay,2021.2.3,164.68656296418624,
right,1.0,0.75,0,0,0,0,0,1,0,1,0,0,7,7,6,,,,,,,,,,,,,,,10s,149.68830445688218,150.68872017180547,150.68294295296073,None,151.68269313778728,157.02730687893927,151.68269313778728,157.02730687893927,157.02092843176797,None,157.02092843176797,None,space,0.365310984198004,157.02092843176797,None,5.3356,157.40959461871535,None,,,,,,,003-1,001,2022_Apr_06_1523,2-25_cond_decay,2021.2.3,164.68656296418624,
left,0.75,1.0,0,0,0,0,0,1,0,1,0,0,8,8,0,,,,,,,,,,,,,,,10s,158.41517945099622,159.41657357709482,159.40984266391024,None,160.41065537789837,164.39761497685686,160.41065537789837,164.39761497685686,164.3911112458445,None,164.3911112458445,None,space,0.36319497087970376,164.3911112458445,None,3.9795,164.76633943477646,None,,,,,,,003-1,001,2022_Apr_06_1523,2-25_cond_decay,2021.2.3,164.68656296418624,
right,1.0,0.75,0,0,0,0,0,1,0,1,0,0,9,9,9,,,,,,,,,,,,,,,10s,165.77239141892642,166.77418263908476,166.7674248907715,None,167.7681880099699,173.05195369198918,167.7681880099699,173.05195369198918,173.05195369198918,None,173.05195369198918,None,space,0.28633586782962084,173.05195369198918,None,5.284,173.36060745781288,None,,,,,,,003-1,001,2022_Apr_06_1523,2-25_cond_decay,2021.2.3,164.68656296418624,
right,1.0,0.75,0,0,0,0,0,1,0,1,0,1,0,10,3,,,,,,,,,,,,,,,10s,174.36128461780027,175.36121061909944,175.3554126759991,None,176.35529652703553,178.25223529012874,176.35529652703553,178.25223529012874,178.25223529012874,None,178.25223529012874,None,space,0.3980718869715929,178.25223529012874,None,1.896,178.6637624767609,None,,,,,,,003-1,001,2022_Apr_06_1523,2-25_cond_decay,2021.2.3,164.68656296418624,
left,0.75,1.0,0,0,0,0,0,1,0,1,0,1,1,11,7,,,,,,,,,,,,,,,10s,179.66902423696592,180.67043580813333,180.66480619413778,None,181.6646457388997,187.23414529068395,181.6646457388997,187.23414529068395,187.22866064682603,None,187.22866064682603,None,space,0.3416444640606642,187.22866064682603,None,5.5648,187.58492205291986,None,,,,,,,003-1,001,2022_Apr_06_1523,2-25_cond_decay,2021.2.3,164.68656296418624,
left,0.75,1.0,0,0,0,0,0,1,0,1,0,1,2,12,1,,,,,,,,,,,,,,,10s,188.58568623289466,189.58508192794397,189.5792996287346,None,190.57979279290885,192.96695918077603,190.57979279290885,192.96695918077603,192.9605482351035,None,192.9605482351035,None,None,,192.9605482351035,None,2.3778,193.96781466668472,None,,,,,,,003-1,001,2022_Apr_06_1523,2-25_cond_decay,2021.2.3,164.68656296418624,
left,1.0,0.75,1,0,0,0,0,1,0,1,0,1,3,13,5,,,,,,,,,,,,,,,10s,194.96774018974975,195.96790771372616,195.9609022620134,None,196.96113930176944,199.3850662400946,196.96113930176944,199.3850662400946,199.3850662400946,None,199.3850662400946,None,space,0.3532396238297224,199.3850662400946,None,2.4236,199.7597029050812,None,,,,,,,003-1,001,2022_Apr_06_1523,2-25_cond_decay,2021.2.3,164.68656296418624,
right,0.75,1.0,1,0,0,0,0,1,0,1,0,1,4,14,4,,,,,,,,,,,,,,,10s,200.7655069748871,201.76699214009568,201.76128253573552,None,202.76134104374796,211.30013079568744,202.76134104374796,211.30013079568744,211.30013079568744,None,211.30013079568744,None,space,0.33411315781995654,211.30013079568744,None,8.5403,211.65242788009346,None,,,,,,,003-1,001,2022_Apr_06_1523,2-25_cond_decay,2021.2.3,164.68656296418624,
left,0.75,1.0,0,0,0,0,0,1,0,1,0,1,5,15,0,,,,,,,,,,,,,,,10s,212.65703908912838,213.65806703083217,213.6522409711033,None,214.65161615610123,217.59160983096808,214.65161615610123,217.59160983096808,217.59160983096808,None,217.59160983096808,None,space,0.40269182389602065,217.59160983096808,None,2.9371,218.00854856194928,None,,,,,,,003-1,001,2022_Apr_06_1523,2-25_cond_decay,2021.2.3,164.68656296418624,
left,0.75,1.0,0,0,0,0,0,1,0,1,0,1,6,16,2,,,,,,,,,,,,,,,10s,219.00894745904952,220.0089655937627,220.00318549899384,None,221.00308251706883,229.51744828000665,221.00308251706883,229.51744828000665,229.5108193596825,None,229.5108193596825,None,space,0.4354937789030373,229.5108193596825,None,8.5058,229.9594665337354,None,,,,,,,003-1,001,2022_Apr_06_1523,2-25_cond_decay,2021.2.3,164.68656296418624,
right,1.0,0.75,0,0,0,0,0,1,0,1,0,1,7,17,9,,,,,,,,,,,,,,,10s,230.96530772186816,231.96666042786092,231.96095673879609,None,232.9605152150616,238.25762241287157,232.9605152150616,238.25762241287157,238.25762241287157,None,238.25762241287157,None,space,0.3046711888164282,238.25762241287157,None,5.2977,238.58329648897052,None,,,,,,,003-1,001,2022_Apr_06_1523,2-25_cond_decay,2021.2.3,164.68656296418624,
right,1.0,0.75,0,0,0,0,0,1,0,1,0,1,8,18,6,,,,,,,,,,,,,,,10s,239.58490570774302,240.58463824074715,240.57887519709766,None,241.57842932408676,248.83299148082733,241.57842932408676,248.83299148082733,248.83299148082733,None,248.83299148082733,None,space,0.2813197271898389,248.83299148082733,None,7.2527,249.12905810168013,None,,,,,,,003-1,001,2022_Apr_06_1523,2-25_cond_decay,2021.2.3,164.68656296418624,
right,1.0,0.75,0,0,0,0,0,1,0,1,0,1,9,19,8,,,,,,,,,,,,,,,10s,250.1299874787219,251.1305873808451,251.12389309797436,None,252.12364324182272,257.3602994941175,252.12364324182272,257.3602994941175,257.3535760208033,None,257.3535760208033,None,space,0.30466995388269424,257.3535760208033,None,5.2281,257.67581577179953,None,,,,,,,003-1,001,2022_Apr_06_1523,2-25_cond_decay,2021.2.3,164.68656296418624,
,,,,0,0,0,0,1,0,1,0,,,,,,,,,,,,,,,,,,,,,,,,,,,,,,,,,,,,,,,,,,,,,003-1,001,2022_Apr_06_1523,2-25_cond_decay,2021.2.3,164.68656296418624,
right,1.0,0.75,0,0,0,0,0,2,0,2,0,0,0,0,6,,,,,,,,,258.68625542800874,None,258.68625542800874,None,258.68625542800874,None,5s,262.0821138578467,263.0880126208067,263.06984941801056,None,264.0698518278077,269.0453804139979,264.0698518278077,269.0453804139979,269.0453804139979,None,269.0453804139979,None,space,0.27687669498845935,269.0453804139979,None,4.9723,269.3347374969162,None,,,,,,,003-1,001,2022_Apr_06_1523,2-25_cond_decay,2021.2.3,164.68656296418624,
left,0.75,1.0,0,0,0,0,0,2,0,2,0,0,1,1,3,,,,,,,,,,,,,,,5s,270.34028795780614,271.3421113858931,271.33645612793043,None,272.33624762203544,273.6508301808499,272.33624762203544,273.6508301808499,273.6454711779952,None,273.6454711779952,None,space,0.44483948266133666,273.6454711779952,None,1.3112,274.10495182080194,None,,,,,,,003-1,001,2022_Apr_06_1523,2-25_cond_decay,2021.2.3,164.68656296418624,
left,1.0,0.75,1,0,0,0,0,2,0,2,0,0,2,2,5,,,,,,,,,,,,,,,5s,275.10594256967306,276.1055927197449,276.09992319205776,None,277.09928984288126,280.25088795879856,277.09928984288126,280.25088795879856,280.25088795879856,None,280.25088795879856,None,space,0.31142566492781043,280.25088795879856,None,3.152,280.57841090578586,None,,,,,,,003-1,001,2022_Apr_06_1523,2-25_cond_decay,2021.2.3,164.68656296418624,
right,1.0,0.75,0,0,0,0,0,2,0,2,0,0,3,3,2,,,,,,,,,,,,,,,5s,281.5825498760678,282.5840218947269,282.57824813295156,None,283.5785203347914,288.18395462911576,283.5785203347914,288.18395462911576,288.18395462911576,None,288.18395462911576,None,space,0.30635046819224954,288.18395462911576,None,4.6058,288.51058663381264,None,,,,,,,003-1,001,2022_Apr_06_1523,2-25_cond_decay,2021.2.3,164.68656296418624,
left,0.75,1.0,0,0,0,0,0,2,0,2,0,0,4,4,8,,,,,,,,,,,,,,,5s,289.5158697688021,290.5179277197458,290.5111254421063,None,291.5115769598633,295.3422440830618,291.5115769598633,295.3422440830618,295.3346686931327,None,295.3346686931327,None,space,0.2756447307765484,295.3346686931327,None,3.819,295.6318601598032,None,,,,,,,003-1,001,2022_Apr_06_1523,2-25_cond_decay,2021.2.3,164.68656296418624,
right,1.0,0.75,0,0,0,0,0,2,0,2,0,0,5,5,7,,,,,,,,,,,,,,,5s,296.6375452047214,297.63814502907917,297.6323303100653,None,298.6327519547194,301.8064859439619,298.6327519547194,301.8064859439619,301.8009875700809,None,301.8009875700809,None,None,,301.8009875700809,None,3.1643,302.8085957011208,None,,,,,,,003-1,001,2022_Apr_06_1523,2-25_cond_decay,2021.2.3,164.68656296418624,
right,0.75,1.0,1,0,0,0,0,2,0,2,0,0,6,6,0,,,,,,,,,,,,,,,5s,303.80845696106553,304.80803821980953,304.8023128528148,None,305.8019034839235,308.68703367980197,305.8019034839235,308.68703367980197,308.68703367980197,None,308.68703367980197,None,space,0.41927550081163645,308.68703367980197,None,2.8857,309.1285146540031,None,,,,,,,003-1,001,2022_Apr_06_1523,2-25_cond_decay,2021.2.3,164.68656296418624,
left,0.75,1.0,0,0,0,0,0,2,0,2,0,0,7,7,1,,,,,,,,,,,,,,,5s,310.13378575304523,311.1351002478041,311.12933973781765,None,312.1297294399701,314.98412390379235,312.1297294399701,314.98412390379235,314.98412390379235,None,314.98412390379235,None,space,0.26619129115715623,314.98412390379235,None,2.8534,315.26086555374786,None,,,,,,,003-1,001,2022_Apr_06_1523,2-25_cond_decay,2021.2.3,164.68656296418624,
left,0.75,1.0,0,0,0,0,0,2,0,2,0,0,8,8,4,,,,,,,,,,,,,,,5s,316.26299464702606,317.26210345188156,317.2563913608901,None,318.25684426678345,321.6068349177949,318.25684426678345,321.6068349177949,321.6003124359995,None,321.6003124359995,None,space,0.3060220261104405,321.6003124359995,None,3.343,321.9236307251267,None,,,,,,,003-1,001,2022_Apr_06_1523,2-25_cond_decay,2021.2.3,164.68656296418624,
right,1.0,0.75,0,0,0,0,0,2,0,2,0,0,9,9,9,,,,,,,,,,,,,,,5s,322.92821377003565,323.92909294506535,323.9233213090338,None,324.9227807139978,328.35821428894997,324.9227807139978,328.35821428894997,328.3516343818046,None,328.3516343818046,None,space,0.3146853232756257,328.3516343818046,None,3.4265,328.67953724972904,None,,,,,,,003-1,001,2022_Apr_06_1523,2-25_cond_decay,2021.2.3,164.68656296418624,
left,0.75,1.0,0,0,0,0,0,2,0,2,0,1,0,10,1,,,,,,,,,,,,,,,5s,329.6858235569671,330.686321655754,330.6805411861278,None,331.6803506370634,335.7520806337707,331.6803506370634,335.7520806337707,335.7455465798266,None,335.7455465798266,None,space,0.2566998931579292,335.7455465798266,None,4.0624,336.0199232888408,None,,,,,,,003-1,001,2022_Apr_06_1523,2-25_cond_decay,2021.2.3,164.68656296418624,
left,1.0,0.75,1,0,0,0,0,2,0,2,0,1,1,11,5,,,,,,,,,,,,,,,5s,337.02003116486594,338.0199634609744,338.01426861807704,None,339.0136183849536,340.8679641080089,339.0136183849536,340.8679641080089,340.86257451586425,None,340.86257451586425,None,space,0.5636938032694161,340.86257451586425,None,1.8497,341.4440268338658,None,,,,,,,003-1,001,2022_Apr_06_1523,2-25_cond_decay,2021.2.3,164.68656296418624,
right,1.0,0.75,0,0,0,0,0,2,0,2,0,1,2,12,2,,,,,,,,,,,,,,,5s,342.44870270974934,343.4499170416966,343.4442753191106,None,344.44355656113476,346.7951840320602,344.44355656113476,346.7951840320602,346.78981336485595,None,346.78981336485595,None,space,0.32444402016699314,346.78981336485595,None,2.3473,347.12727886112407,None,,,,,,,003-1,001,2022_Apr_06_1523,2-25_cond_decay,2021.2.3,164.68656296418624,
right,1.0,0.75,0,0,0,0,0,2,0,2,0,1,3,13,7,,,,,,,,,,,,,,,5s,348.1284893238917,349.1286113788374,349.122964264825,None,350.1222622268833,350.36544198170304,350.1222622268833,350.36544198170304,350.36544198170304,None,350.36544198170304,None,space,0.4528703768737614,350.36544198170304,None,0.2426,350.83035467006266,None,,,,,,,003-1,001,2022_Apr_06_1523,2-25_cond_decay,2021.2.3,164.68656296418624,
left,0.75,1.0,0,0,0,0,0,2,0,2,0,1,4,14,8,,,,,,,,,,,,,,,5s,351.83623541286215,352.8379057967104,352.8312224219553,None,353.83137233695015,355.5517975320108,353.83137233695015,355.5517975320108,355.5450114258565,None,355.5450114258565,None,space,0.3052447596564889,355.5450114258565,None,1.7121,355.86020016670227,None,,,,,,,003-1,001,2022_Apr_06_1523,2-25_cond_decay,2021.2.3,164.68656296418624,
right,0.75,1.0,1,0,0,0,0,2,0,2,0,1,5,15,0,,,,,,,,,,,,,,,5s,356.86708449572325,357.8678106670268,357.86220558406785,None,358.8621280970983,361.370719504077,358.8621280970983,361.370719504077,361.370719504077,None,361.370719504077,None,space,0.3916002078913152,361.370719504077,None,2.5099,361.7755310870707,None,,,,,,,003-1,001,2022_Apr_06_1523,2-25_cond_decay,2021.2.3,164.68656296418624,
left,0.75,1.0,0,0,0,0,0,2,0,2,0,1,6,16,3,,,,,,,,,,,,,,,5s,362.78168337373063,363.7830731677823,363.7773788468912,None,364.7774915290065,367.19481407571584,364.7774915290065,367.19481407571584,367.18831472378224,None,367.18831472378224,None,space,0.35801647370681167,367.18831472378224,None,2.4076,367.5578939607367,None,,,,,,,003-1,001,2022_Apr_06_1523,2-25_cond_decay,2021.2.3,164.68656296418624,
left,0.75,1.0,0,0,0,0,0,2,0,2,0,1,7,17,4,,,,,,,,,,,,,,,5s,368.5583561770618,369.5590288997628,369.5523199387826,None,370.553048111964,374.26081727677956,370.553048111964,374.26081727677956,374.25415609870106,None,374.25415609870106,None,space,0.3241717917844653,374.25415609870106,None,3.6983,374.600313144736,None,,,,,,,003-1,001,2022_Apr_06_1523,2-25_cond_decay,2021.2.3,164.68656296418624,
right,1.0,0.75,0,0,0,0,0,2,0,2,0,1,8,18,6,,,,,,,,,,,,,,,5s,375.6063856109977,376.6069647790864,376.6012988560833,None,377.60118425497785,379.4735325407237,377.60118425497785,379.4735325407237,379.4735325407237,None,379.4735325407237,None,space,0.5447964677587152,379.4735325407237,None,1.873,380.03042570408434,None,,,,,,,003-1,001,2022_Apr_06_1523,2-25_cond_decay,2021.2.3,164.68656296418624,
right,1.0,0.75,0,0,0,0,0,2,0,2,0,1,9,19,9,,,,,,,,,,,,,,,5s,381.0309385340661,382.03107344778255,382.025336552877,None,383.02484376495704,386.20103254681453,383.02484376495704,386.20103254681453,386.20103254681453,None,386.20103254681453,None,space,0.3133064182475209,386.20103254681453,None,3.1761,386.5269216140732,None,,,,,,,003-1,001,2022_Apr_06_1523,2-25_cond_decay,2021.2.3,164.68656296418624,
,,,,0,0,0,0,2,0,2,0,,,,,,,,,,,,,,,,,,,,,,,,,,,,,,,,,,,,,,,,,,,,,003-1,001,2022_Apr_06_1523,2-25_cond_decay,2021.2.3,164.68656296418624,
right,1.0,0.75,0,0,0,0,0,3,0,3,0,0,0,0,7,,,,,,,,,387.5391307841055,None,387.5391307841055,None,387.5391307841055,None,3s,390.13907112181187,391.1402000277303,391.12856006389484,None,392.1278086309321,392.9283642950468,392.1278086309321,392.9283642950468,392.9283642950468,None,392.9283642950468,None,space,0.5379645200446248,392.9283642950468,None,0.7954,393.4785716556944,None,,,,,,,003-1,001,2022_Apr_06_1523,2-25_cond_decay,2021.2.3,164.68656296418624,
right,0.75,1.0,1,0,0,0,0,3,0,3,0,0,1,1,3,,,,,,,,,,,,,,,3s,394.4799182857387,395.4794107959606,395.4736890378408,None,396.4731621160172,398.9384085810743,396.4731621160172,398.9384085810743,398.93302371678874,None,398.93302371678874,None,space,0.30129545694217086,398.93302371678874,None,2.457,399.2478151586838,None,,,,,,,003-1,001,2022_Apr_06_1523,2-25_cond_decay,2021.2.3,164.68656296418624,
left,0.75,1.0,0,0,0,0,0,3,0,3,0,0,2,2,0,,,,,,,,,,,,,,,3s,400.25364214973524,401.2548354929313,401.2490714848973,None,402.24875522684306,403.9339331621304,402.24875522684306,403.9339331621304,403.9339331621304,None,403.9339331621304,None,space,0.2924002627842128,403.9339331621304,None,1.6854,404.24749298999086,None,,,,,,,003-1,001,2022_Apr_06_1523,2-25_cond_decay,2021.2.3,164.68656296418624,
left,0.75,1.0,0,0,0,0,0,3,0,3,0,0,3,3,8,,,,,,,,,,,,,,,3s,405.24952053371817,406.24881003284827,406.24314022809267,None,407.2435155599378,409.65508819790557,407.2435155599378,409.65508819790557,409.6483796411194,None,409.6483796411194,None,space,0.48996084090322256,409.6483796411194,None,2.4029,410.15051782503724,None,,,,,,,003-1,001,2022_Apr_06_1523,2-25_cond_decay,2021.2.3,164.68656296418624,
left,0.75,1.0,0,0,0,0,0,3,0,3,0,0,4,4,4,,,,,,,,,,,,,,,3s,411.1525784940459,412.15210402570665,412.14650234393775,None,413.14567615278065,415.1518641440198,413.14567615278065,415.1518641440198,415.1463737101294,None,415.1463737101294,None,space,0.2719579837284982,415.1463737101294,None,2.0037,415.4299598680809,None,,,,,,,003-1,001,2022_Apr_06_1523,2-25_cond_decay,2021.2.3,164.68656296418624,
left,0.75,1.0,0,0,0,0,0,3,0,3,0,0,5,5,5,,,,,,,,,,,,,,,3s,416.43113483302295,417.4311221158132,417.42429679678753,None,418.4247335931286,420.1465135337785,418.4247335931286,420.1465135337785,420.1465135337785,None,420.1465135337785,None,None,,420.1465135337785,None,1.7197,421.1563159110956,None,,,,,,,003-1,001,2022_Apr_06_1523,2-25_cond_decay,2021.2.3,164.68656296418624,
left,1.0,0.75,1,0,0,0,0,3,0,3,0,0,6,6,2,,,,,,,,,,,,,,,3s,422.1523817591369,423.1582501628436,423.14538294496015,None,424.14576853392646,426.7273780917749,424.14576853392646,426.7273780917749,426.721982809715,None,426.721982809715,None,space,0.37629517121240497,426.721982809715,None,2.577,427.1202675946988,None,,,,,,,003-1,001,2022_Apr_06_1523,2-25_cond_decay,2021.2.3,164.68656296418624,
right,1.0,0.75,0,0,0,0,0,3,0,3,0,0,7,7,9,,,,,,,,,,,,,,,3s,428.12659629574046,429.12720325868577,429.12149166176096,None,430.12188788782805,433.0545696099289,430.12188788782805,433.0545696099289,433.0478897560388,None,433.0478897560388,None,space,0.3224642360582948,433.0478897560388,None,2.9221,433.3803494987078,None,,,,,,,003-1,001,2022_Apr_06_1523,2-25_cond_decay,2021.2.3,164.68656296418624,
right,1.0,0.75,0,0,0,0,0,3,0,3,0,0,8,8,6,,,,,,,,,,,,,,,3s,434.3823754307814,435.38247367506847,435.3756184098311,None,436.3755351519212,438.11558149568737,436.3755351519212,438.11558149568737,438.10980462888256,None,438.10980462888256,None,space,0.3884589388035238,438.10980462888256,None,1.737,438.520666396711,None,,,,,,,003-1,001,2022_Apr_06_1523,2-25_cond_decay,2021.2.3,164.68656296418624,
right,1.0,0.75,0,0,0,0,0,3,0,3,0,0,9,9,1,,,,,,,,,,,,,,,3s,439.52106993691996,440.52141440613195,440.51576830772683,None,441.5148442578502,444.39354209182784,441.5148442578502,444.39354209182784,444.3869694271125,None,444.3869694271125,None,space,0.3033711672760546,444.3869694271125,None,2.8678,444.7024598796852,None,,,,,,,003-1,001,2022_Apr_06_1523,2-25_cond_decay,2021.2.3,164.68656296418624,
right,1.0,0.75,0,0,0,0,0,3,0,3,0,1,0,10,7,,,,,,,,,,,,,,,3s,445.7033964120783,446.70336321089417,446.69667206704617,None,447.69723266083747,448.80576773174107,447.69723266083747,448.80576773174107,448.80576773174107,None,448.80576773174107,None,None,,448.80576773174107,None,1.1089,449.8165016877465,None,,,,,,,003-1,001,2022_Apr_06_1523,2-25_cond_decay,2021.2.3,164.68656296418624,
right,1.0,0.75,0,0,0,0,0,3,0,3,0,1,1,11,1,,,,,,,,,,,,,,,3s,450.8123870668933,451.8125847778283,451.8058942197822,None,452.8064353559166,453.6847889958881,452.8064353559166,453.6847889958881,453.6847889958881,None,453.6847889958881,None,space,0.41354366205632687,453.6847889958881,None,0.8776,454.12044469174,None,,,,,,,003-1,001,2022_Apr_06_1523,2-25_cond_decay,2021.2.3,164.68656296418624,
right,1.0,0.75,0,0,0,0,0,3,0,3,0,1,2,12,9,,,,,,,,,,,,,,,3s,455.12157450290397,456.12068771990016,456.1149598727934,None,457.11472612200305,459.2115676649846,457.11472612200305,459.2115676649846,459.2050210698508,None,459.2050210698508,None,space,0.32527942955493927,459.2050210698508,None,2.088,459.54368514567614,None,,,,,,,003-1,001,2022_Apr_06_1523,2-25_cond_decay,2021.2.3,164.68656296418624,
right,0.75,1.0,1,0,0,0,0,3,0,3,0,1,3,13,3,,,,,,,,,,,,,,,3s,460.54559381399304,461.5455746939406,461.53979182988405,None,462.5389780779369,464.9450561669655,462.5389780779369,464.9450561669655,464.9450561669655,None,464.9450561669655,None,space,0.36128413397818804,464.9450561669655,None,2.4062,465.3195866807364,None,,,,,,,003-1,001,2022_Apr_06_1523,2-25_cond_decay,2021.2.3,164.68656296418624,
left,0.75,1.0,0,0,0,0,0,3,0,3,0,1,4,14,5,,,,,,,,,,,,,,,3s,466.32532543409616,467.3267553378828,467.3210507980548,None,468.3205240778625,469.12657823599875,468.3205240778625,469.12657823599875,469.12003046181053,None,469.12003046181053,None,space,0.46631154092028737,469.12003046181053,None,0.7968,469.59844677802175,None,,,,,,,003-1,001,2022_Apr_06_1523,2-25_cond_decay,2021.2.3,164.68656296418624,
left,0.75,1.0,0,0,0,0,0,3,0,3,0,1,5,15,0,,,,,,,,,,,,,,,3s,470.60019560996443,471.60011212108657,471.59336695773527,None,472.5940225319937,474.6243392401375,472.5940225319937,474.6243392401375,474.6243392401375,None,474.6243392401375,None,space,0.26599022885784507,474.6243392401375,None,2.0302,474.9015678949654,None,,,,,,,003-1,001,2022_Apr_06_1523,2-25_cond_decay,2021.2.3,164.68656296418624,
left,1.0,0.75,1,0,0,0,0,3,0,3,0,1,6,16,2,,,,,,,,,,,,,,,3s,475.90256700105965,476.90253302594647,476.89696992281824,None,477.8966163699515,480.6775262830779,477.8966163699515,480.6775262830779,480.6708340430632,None,480.6708340430632,None,space,0.3075345940887928,480.6708340430632,None,2.7731,480.99264751700684,None,,,,,,,003-1,001,2022_Apr_06_1523,2-25_cond_decay,2021.2.3,164.68656296418624,
left,0.75,1.0,0,0,0,0,0,3,0,3,0,1,7,17,8,,,,,,,,,,,,,,,3s,481.9932291507721,482.99400197668,482.9871264430694,None,483.9869407620281,485.32092096377164,483.9869407620281,485.32092096377164,485.32092096377164,None,485.32092096377164,None,space,0.35341919492930174,485.32092096377164,None,1.3335,485.69571615802124,None,,,,,,,003-1,001,2022_Apr_06_1523,2-25_cond_decay,2021.2.3,164.68656296418624,
right,1.0,0.75,0,0,0,0,0,3,0,3,0,1,8,18,6,,,,,,,,,,,,,,,3s,486.7013476998545,487.7030848558061,487.69617497595027,None,488.6962152980268,490.98690064111724,488.6962152980268,490.98690064111724,490.98039003275335,None,490.98039003275335,None,space,0.2939497050829232,490.98039003275335,None,2.2809,491.2905548210256,None,,,,,,,003-1,001,2022_Apr_06_1523,2-25_cond_decay,2021.2.3,164.68656296418624,
left,0.75,1.0,0,0,0,0,0,3,0,3,0,1,9,19,4,,,,,,,,,,,,,,,3s,492.2951176017523,493.2962715718895,493.2906082919799,None,494.290497855749,497.1747430609539,494.290497855749,497.1747430609539,497.1693631671369,None,497.1693631671369,None,space,0.24890003306791186,497.1693631671369,None,2.8792,497.4358267849311,None,,,,,,,003-1,001,2022_Apr_06_1523,2-25_cond_decay,2021.2.3,164.68656296418624,
,,,,0,0,0,0,3,0,3,0,,,,,,,,,,,,,,,,,,,,,,,,,,,,,,,,,,,,,,,,,,,,,003-1,001,2022_Apr_06_1523,2-25_cond_decay,2021.2.3,164.68656296418624,
,,,,0,0,0,0,,,,,,,,,,,,,,,,,,,,,,,,,,,,,,,,,,,,,,,,,,,498.44634839706123,None,498.44634839706123,None,498.44634839706123,None,003-1,001,2022_Apr_06_1523,2-25_cond_decay,2021.2.3,164.68656296418624,
right,1.0,0.75,0,1,0,1,0,0,0,0,0,0,0,0,4,,,,,,,,,503.4473437028937,None,503.4473437028937,None,503.4473437028937,None,3s,516.8708427250385,517.8713255459443,517.8593454547226,None,518.8597170808353,519.5746693937108,518.8597170808353,519.5746693937108,519.5746693937108,None,519.5746693937108,None,space,0.25967702688649297,519.5746693937108,None,0.7136,519.8464701259509,None,,,,,,,003-1,001,2022_Apr_06_1523,2-25_cond_decay,2021.2.3,164.68656296418624,
left,0.75,1.0,0,1,0,1,0,0,0,0,0,0,1,1,8,,,,,,,,,,,,,,,3s,520.8518555508927,521.85369877005,521.848000545986,None,522.8477401039563,525.0174935869873,522.8477401039563,525.0174935869873,525.0174935869873,None,525.0174935869873,None,space,0.28885007929056883,525.0174935869873,None,2.1675,525.3186151687987,None,,,,,,,003-1,001,2022_Apr_06_1523,2-25_cond_decay,2021.2.3,164.68656296418624,
right,1.0,0.75,0,1,0,1,0,0,0,0,0,0,2,2,9,,,,,,,,,,,,,,,3s,526.3244454590604,527.3259209068492,527.3202386987396,None,528.3198426659219,529.5075498819351,528.3198426659219,529.5075498819351,529.5075498819351,None,529.5075498819351,None,space,0.31880893371999264,529.5075498819351,None,1.1873,529.8406561869197,None,,,,,,,003-1,001,2022_Apr_06_1523,2-25_cond_decay,2021.2.3,164.68656296418624,
left,0.75,1.0,0,1,0,1,0,0,0,0,0,0,3,3,0,,,,,,,,,,,,,,,3s,530.846234515775,531.8471850650385,531.8415057938546,None,532.8414105488919,533.5196098848246,532.8414105488919,533.5196098848246,533.5196098848246,None,533.5196098848246,None,space,0.39465818321332335,533.5196098848246,None,0.678,533.937118222937,None,,,,,,,003-1,001,2022_Apr_06_1523,2-25_cond_decay,2021.2.3,164.68656296418624,
right,1.0,0.75,0,1,0,1,0,0,0,0,0,0,4,4,7,,,,,,,,,,,,,,,3s,534.9427463780157,535.9442833978683,535.9382250769995,None,536.9385508340783,539.4899570047855,536.9385508340783,539.4899570047855,539.4899570047855,None,539.4899570047855,None,space,0.26437259558588266,539.4899570047855,None,2.5495,539.7678046468645,None,,,,,,,003-1,001,2022_Apr_06_1523,2-25_cond_decay,2021.2.3,164.68656296418624,
right,1.0,0.75,0,1,0,1,0,0,0,0,0,0,5,5,2,,,,,,,,,,,,,,,3s,540.7679500030354,541.7687067426741,541.7620289591141,None,542.7626073649153,542.9387000231072,542.7626073649153,542.9387000231072,542.9311127457768,None,542.9311127457768,None,space,0.44724136777222157,542.9311127457768,None,0.167,543.3916609268636,None,,,,,,,003-1,001,2022_Apr_06_1523,2-25_cond_decay,2021.2.3,164.68656296418624,
left,1.0,0.75,1,1,0,1,0,0,0,0,0,0,6,6,3,,,,,,,,,,,,,,,3s,544.3976379157975,545.3983467719518,545.3925678259693,None,546.393024800811,548.5623778817244,546.393024800811,548.5623778817244,548.5623778817244,None,548.5623778817244,None,space,0.28799360198900104,548.5623778817244,None,2.1688,548.8635968146846,None,,,,,,,003-1,001,2022_Apr_06_1523,2-25_cond_decay,2021.2.3,164.68656296418624,
right,1.0,0.75,0,1,0,1,0,0,0,0,0,0,7,7,6,,,,,,,,,,,,,,,3s,549.8696393319406,550.8713090131059,550.8654917818494,None,551.865439388901,554.33788407268,551.865439388901,554.33788407268,554.33788407268,None,554.33788407268,None,space,0.25646309927105904,554.33788407268,None,2.4726,554.611175626982,None,,,,,,,003-1,001,2022_Apr_06_1523,2-25_cond_decay,2021.2.3,164.68656296418624,
left,0.75,1.0,0,1,0,1,0,0,0,0,0,0,8,8,1,,,,,,,,,,,,,,,3s,555.6153113879263,556.6171582257375,556.610301645007,None,557.6103882919997,558.1002033958212,557.6103882919997,558.1002033958212,558.093740278855,None,558.093740278855,None,space,0.42860697070136666,558.093740278855,None,0.4828,558.5383159569465,None,,,,,,,003-1,001,2022_Apr_06_1523,2-25_cond_decay,2021.2.3,164.68656296418624,
right,0.75,1.0,1,1,0,1,0,0,0,0,0,0,9,9,5,,,,,,,,,,,,,,,3s,559.5492126918398,560.5494704297744,560.5437253569253,None,561.5436448389664,564.143776029814,561.5436448389664,564.143776029814,564.143776029814,None,564.143776029814,None,space,0.22656636592000723,564.143776029814,None,2.5989,564.3917471268214,None,,,,,,,003-1,001,2022_Apr_06_1523,2-25_cond_decay,2021.2.3,164.68656296418624,
right,1.0,0.75,0,1,0,1,0,0,0,0,0,1,0,10,7,,,,,,,,,,,,,,,3s,565.3921853830107,566.3918946427293,566.3861733279191,None,567.3862508740276,569.8403923758306,567.3862508740276,569.8403923758306,569.8339148168452,None,569.8339148168452,None,space,0.32836001040413976,569.8339148168452,None,2.4446,570.1733464389108,None,,,,,,,003-1,001,2022_Apr_06_1523,2-25_cond_decay,2021.2.3,164.68656296418624,
left,0.75,1.0,0,1,0,1,0,0,0,0,0,1,1,11,1,,,,,,,,,,,,,,,3s,571.1788128018379,572.1805432527326,572.1737320758402,None,573.1735785207711,573.7377174547873,573.1735785207711,573.7377174547873,573.7377174547873,None,573.7377174547873,None,space,0.5766301290132105,573.7377174547873,None,0.5646,574.331867647823,None,,,,,,,003-1,001,2022_Apr_06_1523,2-25_cond_decay,2021.2.3,164.68656296418624,
right,1.0,0.75,0,1,0,1,0,0,0,0,0,1,2,12,6,,,,,,,,,,,,,,,3s,575.3361409488134,576.337240695022,576.3314934959635,None,577.3320259219036,578.6038765469566,577.3320259219036,578.6038765469566,578.5985006098635,None,578.5985006098635,None,space,0.34784865798428655,578.5985006098635,None,1.2675,578.9620713330805,None,,,,,,,003-1,001,2022_Apr_06_1523,2-25_cond_decay,2021.2.3,164.68656296418624,
left,0.75,1.0,0,1,0,1,0,0,0,0,0,1,3,13,8,,,,,,,,,,,,,,,3s,579.9671876779757,580.967398407869,580.9616697127931,None,581.9619992538355,583.5738828270696,581.9619992538355,583.5738828270696,583.5738828270696,None,583.5738828270696,None,space,0.24446752713993192,583.5738828270696,None,1.6105,583.8389361379668,None,,,,,,,003-1,001,2022_Apr_06_1523,2-25_cond_decay,2021.2.3,164.68656296418624,
left,1.0,0.75,1,1,0,1,0,0,0,0,0,1,4,14,3,,,,,,,,,,,,,,,3s,584.8404360869899,585.8409231328405,585.8340478041209,None,586.8348679328337,587.0159539538436,586.8348679328337,587.0159539538436,587.0159539538436,None,587.0159539538436,None,None,,587.0159539538436,None,0.1811,588.0272384937853,None,,,,,,,003-1,001,2022_Apr_06_1523,2-25_cond_decay,2021.2.3,164.68656296418624,
right,0.75,1.0,1,1,0,1,0,0,0,0,0,1,5,15,5,,,,,,,,,,,,,,,3s,589.0276896287687,590.0281344638206,590.0224188216962,None,591.0224334900267,593.3431750540622,591.0224334900267,593.3431750540622,593.3377989069559,None,593.3377989069559,None,space,0.32050391798838973,593.3377989069559,None,2.3167,593.6753774448298,None,,,,,,,003-1,001,2022_Apr_06_1523,2-25_cond_decay,2021.2.3,164.68656296418624,
left,0.75,1.0,0,1,0,1,0,0,0,0,0,1,6,16,0,,,,,,,,,,,,,,,3s,594.6756090060808,595.6772160967812,595.6703454768285,None,596.6704186960123,597.3196258787066,596.6704186960123,597.3196258787066,597.3196258787066,None,597.3196258787066,None,space,0.4186497190967202,597.3196258787066,None,0.6493,597.7598834899254,None,,,,,,,003-1,001,2022_Apr_06_1523,2-25_cond_decay,2021.2.3,164.68656296418624,
right,1.0,0.75,0,1,0,1,0,0,0,0,0,1,7,17,2,,,,,,,,,,,,,,,3s,598.766694766935,599.767214179039,599.761498732958,None,600.7613628706895,601.5431147119962,600.7613628706895,601.5431147119962,601.5376073969528,None,601.5376073969528,None,space,0.2726816167123616,601.5376073969528,None,0.7779,601.8324949420057,None,,,,,,,003-1,001,2022_Apr_06_1523,2-25_cond_decay,2021.2.3,164.68656296418624,
left,0.75,1.0,0,1,0,1,0,0,0,0,0,1,8,18,4,,,,,,,,,,,,,,,3s,602.8393112947233,603.8399185477756,603.8341440847144,None,604.8342669657432,605.9065376319923,604.8342669657432,605.9065376319923,605.9065376319923,None,605.9065376319923,None,space,0.3438148107379675,605.9065376319923,None,1.0711,606.2633512290195,None,,,,,,,003-1,001,2022_Apr_06_1523,2-25_cond_decay,2021.2.3,164.68656296418624,
right,1.0,0.75,0,1,0,1,0,0,0,0,0,1,9,19,9,,,,,,,,,,,,,,,3s,607.2690437338315,608.270926615689,608.2641118187457,None,609.26473376574,611.5245144767687,609.26473376574,611.5245144767687,611.518012501765,None,611.518012501765,None,space,0.2363468622788787,611.518012501765,None,2.2525,611.7662372160703,None,,,,,,,003-1,001,2022_Apr_06_1523,2-25_cond_decay,2021.2.3,164.68656296418624,
,,,,1,0,1,0,0,0,0,0,,,,,,,,,,,,,,,,,,,,,,,,,,,,,,,,,,,,,,,,,,,,,003-1,001,2022_Apr_06_1523,2-25_cond_decay,2021.2.3,164.68656296418624,
left,0.75,1.0,0,1,0,1,0,1,0,1,0,0,0,0,0,,,,,,,,,612.7738657956943,None,612.7738657956943,None,612.7738657956943,None,5s,617.4207926727831,618.4220387390815,618.409678994678,None,619.4101319490001,621.4824524158612,619.4101319490001,621.4824524158612,621.4824524158612,None,621.4824524158612,None,space,0.34384477604180574,621.4824524158612,None,2.0699,621.8387172757648,None,,,,,,,003-1,001,2022_Apr_06_1523,2-25_cond_decay,2021.2.3,164.68656296418624,
right,1.0,0.75,0,1,0,1,0,1,0,1,0,0,1,1,7,,,,,,,,,,,,,,,5s,622.8444221019745,623.8460777550936,623.8401997787878,None,624.8397990628146,629.1365673760884,624.8397990628146,629.1365673760884,629.1300851278938,None,629.1300851278938,None,space,0.32827487774193287,629.1300851278938,None,4.287,629.4814803167246,None,,,,,,,003-1,001,2022_Apr_06_1523,2-25_cond_decay,2021.2.3,164.68656296418624,
left,0.75,1.0,0,1,0,1,0,1,0,1,0,0,2,2,9,,,,,,,,,,,,,,,5s,630.4874392277561,631.4881407041103,631.4823906957172,None,632.48279248178,636.2337517477572,632.48279248178,636.2337517477572,636.2280429890379,None,636.2280429890379,None,space,0.2943166410550475,636.2280429890379,None,3.7459,636.535667533055,None,,,,,,,003-1,001,2022_Apr_06_1523,2-25_cond_decay,2021.2.3,164.68656296418624,
right,1.0,0.75,0,1,0,1,0,1,0,1,0,0,3,3,5,,,,,,,,,,,,,,,5s,637.5418479391374,638.5431411857717,638.5362651557662,None,639.5363202379085,642.4444570778869,639.5363202379085,642.4444570778869,642.4379751058295,None,642.4379751058295,None,None,,642.4379751058295,None,2.8994,643.4457004619762,None,,,,,,,003-1,001,2022_Apr_06_1523,2-25_cond_decay,2021.2.3,164.68656296418624,
right,1.0,0.75,0,1,0,1,0,1,0,1,0,0,4,4,2,,,,,,,,,,,,,,,5s,644.4460150147788,645.4455870888196,645.4398767189123,None,646.4391667339951,651.0453644120134,646.4391667339951,651.0453644120134,651.0399788888171,None,651.0399788888171,None,space,0.25830523995682597,651.0399788888171,None,4.602,651.3172895708121,None,,,,,,,003-1,001,2022_Apr_06_1523,2-25_cond_decay,2021.2.3,164.68656296418624,
left,0.75,1.0,0,1,0,1,0,1,0,1,0,0,5,5,3,,,,,,,,,,,,,,,5s,652.3165941010229,653.3185600209981,653.3118274309672,None,654.3127790540457,658.7417559069581,654.3127790540457,658.7417559069581,658.7349678697065,None,658.7349678697065,None,space,0.3473211769014597,658.7349678697065,None,4.4192,659.1003880398348,None,,,,,,,003-1,001,2022_Apr_06_1523,2-25_cond_decay,2021.2.3,164.68656296418624,
right,1.0,0.75,0,1,0,1,0,1,0,1,0,0,6,6,1,,,,,,,,,,,,,,,5s,660.1045247521251,661.1059656729922,661.1002171761356,None,662.09961191006,665.4212243817747,662.09961191006,665.4212243817747,665.4212243817747,None,665.4212243817747,None,space,0.3891206542029977,665.4212243817747,None,3.3189,665.8272517207079,None,,,,,,,003-1,001,2022_Apr_06_1523,2-25_cond_decay,2021.2.3,164.68656296418624,
left,0.75,1.0,0,1,0,1,0,1,0,1,0,0,7,7,4,,,,,,,,,,,,,,,5s,666.8320437707007,667.8333248631097,667.8274952289648,None,668.8276429707184,669.9843156887218,668.8276429707184,669.9843156887218,669.9843156887218,None,669.9843156887218,None,space,0.298033039085567,669.9843156887218,None,1.1557,670.3052628338337,None,,,,,,,003-1,001,2022_Apr_06_1523,2-25_cond_decay,2021.2.3,164.68656296418624,
right,0.75,1.0,1,1,0,1,0,1,0,1,0,0,8,8,8,,,,,,,,,,,,,,,5s,671.3102357708849,672.3118418869562,672.3059546956792,None,673.305908553768,675.7609731089324,673.305908553768,675.7609731089324,675.7609731089324,None,675.7609731089324,None,space,0.28940238896757364,675.7609731089324,None,2.4536,676.0621513007209,None,,,,,,,003-1,001,2022_Apr_06_1523,2-25_cond_decay,2021.2.3,164.68656296418624,
left,1.0,0.75,1,1,0,1,0,1,0,1,0,0,9,9,6,,,,,,,,,,,,,,,5s,677.06862498587,678.0699403858744,678.0640087439679,None,679.0633584046736,679.9417290659621,679.0633584046736,679.9417290659621,679.9351439257152,None,679.9351439257152,None,space,0.43523035664111376,679.9351439257152,None,0.8678,680.3829566538334,None,,,,,,,003-1,001,2022_Apr_06_1523,2-25_cond_decay,2021.2.3,164.68656296418624,
right,1.0,0.75,0,1,0,1,0,1,0,1,0,1,0,10,5,,,,,,,,,,,,,,,5s,681.3898529750295,682.3904386339709,682.3846857948229,None,683.3843895699829,687.0744654620066,683.3843895699829,687.0744654620066,687.067749213893,None,687.067749213893,None,space,0.30261981626972556,687.067749213893,None,3.6823,687.3836414497346,None,,,,,,,003-1,001,2022_Apr_06_1523,2-25_cond_decay,2021.2.3,164.68656296418624,
left,1.0,0.75,1,1,0,1,0,1,0,1,0,1,1,11,6,,,,,,,,,,,,,,,5s,688.3897991697304,689.391122684814,689.3841457250528,None,690.3840999710374,691.2513341507874,690.3840999710374,691.2513341507874,691.2513341507874,None,691.2513341507874,None,space,0.39101858623325825,691.2513341507874,None,0.8674,691.6562412008643,None,,,,,,,003-1,001,2022_Apr_06_1523,2-25_cond_decay,2021.2.3,164.68656296418624,
right,1.0,0.75,0,1,0,1,0,1,0,1,0,1,2,12,2,,,,,,,,,,,,,,,5s,692.6615951866843,693.6635932438076,693.6566700050607,None,694.6573181357235,698.9059932990931,694.6573181357235,698.9059932990931,698.9059932990931,None,698.9059932990931,None,space,0.45631359703838825,698.9059932990931,None,4.2487,699.3833890329115,None,,,,,,,003-1,001,2022_Apr_06_1523,2-25_cond_decay,2021.2.3,164.68656296418624,
right,1.0,0.75,0,1,0,1,0,1,0,1,0,1,3,13,1,,,,,,,,,,,,,,,5s,700.3843825887889,701.3848329079337,701.3779255500995,None,702.3783614058048,705.928055355791,702.3783614058048,705.928055355791,705.922660517972,None,705.922660517972,None,space,0.5917133381590247,705.922660517972,None,3.5414,706.5279422318563,None,,,,,,,003-1,001,2022_Apr_06_1523,2-25_cond_decay,2021.2.3,164.68656296418624,
left,0.75,1.0,0,1,0,1,0,1,0,1,0,1,4,14,9,,,,,,,,,,,,,,,5s,707.5341771920212,708.5359069011174,708.5298793567345,None,709.5294568748213,709.8068770826794,709.5294568748213,709.8068770826794,709.801047777757,None,709.801047777757,None,None,,709.801047777757,None,0.2681,710.8126268130727,None,,,,,,,003-1,001,2022_Apr_06_1523,2-25_cond_decay,2021.2.3,164.68656296418624,
right,0.75,1.0,1,1,0,1,0,1,0,1,0,1,5,15,8,,,,,,,,,,,,,,,5s,711.8136419961229,712.8141517778859,712.8082209178247,None,713.8085025269538,716.3347161831334,713.8085025269538,716.3347161831334,716.3278262778185,None,716.3278262778185,None,space,0.37046762090176344,716.3278262778185,None,2.5176,716.716794108972,None,,,,,,,003-1,001,2022_Apr_06_1523,2-25_cond_decay,2021.2.3,164.68656296418624,
left,0.75,1.0,0,1,0,1,0,1,0,1,0,1,6,16,0,,,,,,,,,,,,,,,5s,717.71620333381,718.7172583057545,718.711600319948,None,719.710881404113,724.3171017020941,719.710881404113,724.3171017020941,724.3171017020941,None,724.3171017020941,None,space,0.30118381325155497,724.3171017020941,None,4.6042,724.6311547267251,None,,,,,,,003-1,001,2022_Apr_06_1523,2-25_cond_decay,2021.2.3,164.68656296418624,
left,0.75,1.0,0,1,0,1,0,1,0,1,0,1,7,17,4,,,,,,,,,,,,,,,5s,725.6321801720187,726.6321857809089,726.6265543070622,None,727.6260529989377,729.6915548341349,727.6260529989377,729.6915548341349,729.6857229289599,None,729.6857229289599,None,space,0.3645832082256675,729.6857229289599,None,2.0578,730.0617721970193,None,,,,,,,003-1,001,2022_Apr_06_1523,2-25_cond_decay,2021.2.3,164.68656296418624,
right,1.0,0.75,0,1,0,1,0,1,0,1,0,1,8,18,7,,,,,,,,,,,,,,,5s,731.0678036920726,732.0687202569097,732.062875112053,None,733.0622264901176,736.212421905715,733.0622264901176,736.212421905715,736.2063725930639,None,736.2063725930639,None,space,0.34792298218235373,736.2063725930639,None,3.1422,736.5763525147922,None,,,,,,,003-1,001,2022_Apr_06_1523,2-25_cond_decay,2021.2.3,164.68656296418624,
left,0.75,1.0,0,1,0,1,0,1,0,1,0,1,9,19,3,,,,,,,,,,,,,,,5s,737.5823436887003,738.5837765308097,738.5771217737347,None,739.5774828367867,742.6747697228566,739.5774828367867,742.6747697228566,742.6676625339314,None,742.6676625339314,None,space,0.2946315431036055,742.6676625339314,None,3.0864,742.9820407368243,None,,,,,,,003-1,001,2022_Apr_06_1523,2-25_cond_decay,2021.2.3,164.68656296418624,
,,,,1,0,1,0,1,0,1,0,,,,,,,,,,,,,,,,,,,,,,,,,,,,,,,,,,,,,,,,,,,,,003-1,001,2022_Apr_06_1523,2-25_cond_decay,2021.2.3,164.68656296418624,
right,1.0,0.75,0,1,0,1,0,2,0,2,0,0,0,0,6,,,,,,,,,743.9901204518974,None,743.9901204518974,None,743.9901204518974,None,1s,744.4912212248892,745.4927675630897,745.4804039429873,None,746.481074410025,747.014289884828,746.481074410025,747.014289884828,747.014289884828,None,747.014289884828,None,space,0.35605547158047557,747.014289884828,None,0.5283,747.3824885087088,None,,,,,,,003-1,001,2022_Apr_06_1523,2-25_cond_decay,2021.2.3,164.68656296418624,
right,1.0,0.75,0,1,0,1,0,2,0,2,0,0,1,1,9,,,,,,,,,,,,,,,1s,748.3838479458354,749.3836821489967,749.3777230349369,None,750.3775141569786,751.3473684079945,750.3775141569786,751.3473684079945,751.3473684079945,None,751.3473684079945,None,space,0.3109237141907215,751.3473684079945,None,0.9699,751.6789176058955,None,,,,,,,003-1,001,2022_Apr_06_1523,2-25_cond_decay,2021.2.3,164.68656296418624,
right,1.0,0.75,0,1,0,1,0,2,0,2,0,0,2,2,4,,,,,,,,,,,,,,,1s,752.6805180278607,753.6800966677256,753.6744290199131,None,754.6739618829452,755.2917759097181,754.6739618829452,755.2917759097181,755.2917759097181,None,755.2917759097181,None,space,0.2705232207663357,755.2917759097181,None,0.6145,755.582057850901,None,,,,,,,003-1,001,2022_Apr_06_1523,2-25_cond_decay,2021.2.3,164.68656296418624,
left,0.75,1.0,0,1,0,1,0,2,0,2,0,0,3,3,3,,,,,,,,,,,,,,,1s,756.5887181167491,757.5895083700307,757.5834820219316,None,758.58296051668,759.4076335220598,758.58296051668,759.4076335220598,759.4076335220598,None,759.4076335220598,None,space,0.2506712437607348,759.4076335220598,None,0.8237,759.6794347777031,None,,,,,,,003-1,001,2022_Apr_06_1523,2-25_cond_decay,2021.2.3,164.68656296418624,
right,1.0,0.75,0,1,0,1,0,2,0,2,0,0,4,4,7,,,,,,,,,,,,,,,1s,760.6854962031357,761.6860060910694,761.6802868437953,None,762.6805781400762,763.6488368967548,762.6805781400762,763.6488368967548,763.64230682794,None,763.64230682794,None,space,0.25602105585858226,763.64230682794,None,0.9598,763.9091332568787,None,,,,,,,003-1,001,2022_Apr_06_1523,2-25_cond_decay,2021.2.3,164.68656296418624,
right,1.0,0.75,0,1,0,1,0,2,0,2,0,0,5,5,0,,,,,,,,,,,,,,,1s,764.9102544900961,765.9107450391166,765.9050565888174,None,766.9049739888869,767.8378318417817,766.9049739888869,767.8378318417817,767.8378318417817,None,767.8378318417817,None,space,0.27654308173805475,767.8378318417817,None,0.9328,768.1274828161113,None,,,,,,,003-1,001,2022_Apr_06_1523,2-25_cond_decay,2021.2.3,164.68656296418624,
left,0.75,1.0,0,1,0,1,0,2,0,2,0,0,6,6,5,,,,,,,,,,,,,,,1s,769.1338138217106,770.1348428460769,770.1291765407659,None,771.1291849380359,771.745714053046,771.1291849380359,771.745714053046,771.7391958469525,None,771.7391958469525,None,space,0.5591385178267956,771.7391958469525,None,0.6093,772.3096850276925,None,,,,,,,003-1,001,2022_Apr_06_1523,2-25_cond_decay,2021.2.3,164.68656296418624,
right,0.75,1.0,1,1,0,1,0,2,0,2,0,0,7,7,2,,,,,,,,,,,,,,,1s,773.3155246837996,774.3161034137011,774.3103064331226,None,775.3102698461153,775.6738414978608,775.3102698461153,775.6738414978608,775.6673752288334,None,775.6673752288334,None,space,0.4390021520666778,775.6673752288334,None,0.3553,776.1269703577273,None,,,,,,,003-1,001,2022_Apr_06_1523,2-25_cond_decay,2021.2.3,164.68656296418624,
left,0.75,1.0,0,1,0,1,0,2,0,2,0,0,8,8,8,,,,,,,,,,,,,,,1s,777.1336877467111,778.1343766096979,778.128623391036,None,779.1282026497647,779.5286226687022,779.1282026497647,779.5286226687022,779.5220808601007,None,779.5220808601007,None,space,0.3602866716682911,779.5220808601007,None,0.3895,779.9036816558801,None,,,,,,,003-1,001,2022_Apr_06_1523,2-25_cond_decay,2021.2.3,164.68656296418624,
left,1.0,0.75,1,1,0,1,0,2,0,2,0,0,9,9,1,,,,,,,,,,,,,,,1s,780.9048133199103,781.9044255157933,781.898720506113,None,782.8983584768139,783.7152934460901,782.8983584768139,783.7152934460901,783.7088157297112,None,783.7088157297112,None,space,0.3095688847824931,783.7088157297112,None,0.8073,784.0306292236783,None,,,,,,,003-1,001,2022_Apr_06_1523,2-25_cond_decay,2021.2.3,164.68656296418624,
left,0.75,1.0,0,1,0,1,0,2,0,2,0,1,0,10,6,,,,,,,,,,,,,,,1s,785.0320971729234,786.0313129089773,786.0255835768767,None,787.0256705889478,787.1948652719148,787.0256705889478,787.1948652719148,787.1894766790792,None,787.1894766790792,None,space,0.4449077406898141,787.1894766790792,None,0.166,787.6486506317742,None,,,,,,,003-1,001,2022_Apr_06_1523,2-25_cond_decay,2021.2.3,164.68656296418624,
left,0.75,1.0,0,1,0,1,0,2,0,2,0,1,1,11,8,,,,,,,,,,,,,,,1s,788.6501213898882,789.6502547357231,789.643410241697,None,790.6436350308359,791.5705835251138,790.6436350308359,791.5705835251138,791.5640827319585,None,791.5640827319585,None,space,0.286231332924217,791.5640827319585,None,0.9182,791.8602816979401,None,,,,,,,003-1,001,2022_Apr_06_1523,2-25_cond_decay,2021.2.3,164.68656296418624,
left,0.75,1.0,0,1,0,1,0,2,0,2,0,1,2,12,3,,,,,,,,,,,,,,,1s,792.8617028910667,793.8612974761054,793.8555845730007,796.4379545310512,794.8558116750792,795.4493465907872,794.8558116750792,795.4493465907872,795.4425895959139,None,795.4425895959139,None,None,,795.4425895959139,None,0.5827,796.4539533001371,None,,,,,,,003-1,001,2022_Apr_06_1523,2-25_cond_decay,2021.2.3,164.68656296418624,
right,0.75,1.0,1,1,0,1,0,2,0,2,0,1,3,13,2,,,,,,,,,,,,,,,1s,797.4539229567163,798.4559755339287,798.4492613710463,None,799.4494864549488,799.9643023307435,799.4494864549488,799.9643023307435,799.957712139003,None,799.957712139003,None,space,0.9726084368303418,799.957712139003,None,0.5046,800.9527798648924,None,,,,,,,003-1,001,2022_Apr_06_1523,2-25_cond_decay,2021.2.3,164.68656296418624,
right,1.0,0.75,0,1,0,1,0,2,0,2,0,1,4,14,4,,,,,,,,,,,,,,,1s,801.9522694968618,802.9526525097899,802.9469198430888,None,803.946080760099,804.8125596838072,803.946080760099,804.8125596838072,804.8125596838072,None,804.8125596838072,None,space,0.28575145080685616,804.8125596838072,None,0.8649,805.1204730630852,None,,,,,,,003-1,001,2022_Apr_06_1523,2-25_cond_decay,2021.2.3,164.68656296418624,
right,1.0,0.75,0,1,0,1,0,2,0,2,0,1,5,15,7,,,,,,,,,,,,,,,1s,806.1216665906832,807.121719693765,807.1159254908562,None,808.1158771598712,808.9398331707343,808.1158771598712,808.9398331707343,808.933301829733,None,808.933301829733,None,space,0.2930784560739994,808.933301829733,None,0.8138,809.2435311377048,None,,,,,,,003-1,001,2022_Apr_06_1523,2-25_cond_decay,2021.2.3,164.68656296418624,
right,1.0,0.75,0,1,0,1,0,2,0,2,0,1,6,16,0,,,,,,,,,,,,,,,1s,810.2437052000314,811.2431583721191,811.2374736978672,None,812.2374533349648,812.8969148360193,812.2374533349648,812.8969148360193,812.8907564259134,None,812.8907564259134,None,space,0.3195548220537603,812.8907564259134,None,0.6512,813.223676702939,None,,,,,,,003-1,001,2022_Apr_06_1523,2-25_cond_decay,2021.2.3,164.68656296418624,
left,0.75,1.0,0,1,0,1,0,2,0,2,0,1,7,17,5,,,,,,,,,,,,,,,1s,814.2300457060337,815.2312088608742,815.2255169809796,None,816.2255324968137,816.4801720608957,816.2255324968137,816.4801720608957,816.4725975939073,None,816.4725975939073,None,space,0.5457889991812408,816.4725975939073,None,0.2431,817.0303414207883,None,,,,,,,003-1,001,2022_Apr_06_1523,2-25_cond_decay,2021.2.3,164.68656296418624,
left,1.0,0.75,1,1,0,1,0,2,0,2,0,1,8,18,1,,,,,,,,,,,,,,,1s,818.031438708771,819.0310183051042,819.0254667918198,None,820.0246384800412,820.2371193408035,820.0246384800412,820.2371193408035,820.2371193408035,None,820.2371193408035,None,None,,820.2371193408035,None,0.2111,821.2478470178321,None,,,,,,,003-1,001,2022_Apr_06_1523,2-25_cond_decay,2021.2.3,164.68656296418624,
right,1.0,0.75,0,1,0,1,0,2,0,2,0,1,9,19,9,,,,,,,,,,,,,,,1s,822.2475646310486,823.2489181407727,823.2431227681227,None,824.2434603390284,824.8971936008893,824.2434603390284,824.8971936008893,824.8971936008893,None,824.8971936008893,None,space,0.265206690877676,824.8971936008893,None,0.6535,825.1810349198058,None,,,,,,,003-1,001,2022_Apr_06_1523,2-25_cond_decay,2021.2.3,164.68656296418624,
,,,,1,0,1,0,2,0,2,0,,,,,,,,,,,,,,,,,,,,,,,,,,,,,,,,,,,,,,,,,,,,,003-1,001,2022_Apr_06_1523,2-25_cond_decay,2021.2.3,164.68656296418624,
left,0.75,1.0,0,1,0,1,0,3,0,3,0,0,0,0,3,,,,,,,,,826.1828703079373,None,826.1828703079373,None,826.1828703079373,None,10s,835.4060700959526,836.4071285817772,836.3949657338671,None,837.3941635768861,842.2916822177358,837.3941635768861,842.2916822177358,842.2916822177358,None,842.2916822177358,None,space,0.27871731389313936,842.2916822177358,None,4.896,842.5820104288869,None,,,,,,,003-1,001,2022_Apr_06_1523,2-25_cond_decay,2021.2.3,164.68656296418624,
right,0.75,1.0,1,1,0,1,0,3,0,3,0,0,1,1,9,,,,,,,,,,,,,,,10s,843.5868290676735,844.5885961120948,844.5818935409188,None,845.5820284369402,853.9575260500424,845.5820284369402,853.9575260500424,853.9575260500424,None,853.9575260500424,None,space,0.2528055920265615,853.9575260500424,None,8.3743,854.2238564579748,None,,,,,,,003-1,001,2022_Apr_06_1523,2-25_cond_decay,2021.2.3,164.68656296418624,
right,1.0,0.75,0,1,0,1,0,3,0,3,0,0,2,2,5,,,,,,,,,,,,,,,10s,855.2244070437737,856.2249733367935,856.2181619680487,None,857.2181905508041,863.1513343998231,857.2181905508041,863.1513343998231,863.1513343998231,None,863.1513343998231,None,space,0.30699495784938335,863.1513343998231,None,5.9321,863.4716669698246,None,,,,,,,003-1,001,2022_Apr_06_1523,2-25_cond_decay,2021.2.3,164.68656296418624,
right,1.0,0.75,0,1,0,1,0,3,0,3,0,0,3,3,2,,,,,,,,,,,,,,,10s,864.472751128953,865.4731727177277,865.4663602169603,None,866.4670985657722,870.3997807600535,866.4670985657722,870.3997807600535,870.3944198498502,None,870.3944198498502,None,space,0.3520083809271455,870.3944198498502,None,3.9297,870.7680043638684,None,,,,,,,003-1,001,2022_Apr_06_1523,2-25_cond_decay,2021.2.3,164.68656296418624,
left,0.75,1.0,0,1,0,1,0,3,0,3,0,0,4,4,1,,,,,,,,,,,,,,,10s,871.7740850229748,872.775706525892,872.7701158579439,None,873.7699132380076,874.9816427468322,873.7699132380076,874.9816427468322,874.9816427468322,None,874.9816427468322,None,space,0.42874527908861637,874.9816427468322,None,1.2112,875.4225653028116,None,,,,,,,003-1,001,2022_Apr_06_1523,2-25_cond_decay,2021.2.3,164.68656296418624,
right,1.0,0.75,0,1,0,1,0,3,0,3,0,0,5,5,8,,,,,,,,,,,,,,,10s,876.4287177249789,877.4307909719646,877.4239692538977,None,878.4236530987546,878.6001514610834,878.4236530987546,878.6001514610834,878.6001514610834,None,878.6001514610834,None,space,0.5461701648309827,878.6001514610834,None,0.1765,879.1688189907,None,,,,,,,003-1,001,2022_Apr_06_1523,2-25_cond_decay,2021.2.3,164.68656296418624,
left,0.75,1.0,0,1,0,1,0,3,0,3,0,0,6,6,7,,,,,,,,,,,,,,,10s,880.1746457358822,881.1755839320831,881.1699148719199,None,882.1694882479496,890.6847879961133,882.1694882479496,890.6847879961133,890.6847879961133,None,890.6847879961133,None,space,0.30154454428702593,890.6847879961133,None,8.5139,890.9981008390896,None,,,,,,,003-1,001,2022_Apr_06_1523,2-25_cond_decay,2021.2.3,164.68656296418624,
left,0.75,1.0,0,1,0,1,0,3,0,3,0,0,7,7,4,,,,,,,,,,,,,,,10s,892.0000071097165,892.9996851007454,892.9939667228609,None,893.9938741149381,898.2351634609513,893.9938741149381,898.2351634609513,898.2285997397266,None,898.2285997397266,None,space,0.30980668729171157,898.2285997397266,None,4.2334,898.549989419058,None,,,,,,,003-1,001,2022_Apr_06_1523,2-25_cond_decay,2021.2.3,164.68656296418624,
right,1.0,0.75,0,1,0,1,0,3,0,3,0,0,8,8,6,,,,,,,,,,,,,,,10s,899.5562521140091,900.5570718157105,900.5514897149988,None,901.5513626136817,904.8839326398447,901.5513626136817,904.8839326398447,904.8774310327135,None,904.8774310327135,None,space,0.31688364408910275,904.8774310327135,None,3.3248,905.2118152198382,None,,,,,,,003-1,001,2022_Apr_06_1523,2-25_cond_decay,2021.2.3,164.68656296418624,
left,0.75,1.0,0,1,0,1,0,3,0,3,0,0,9,9,0,,,,,,,,,,,,,,,10s,906.2167733008973,907.2174205780029,907.2116945479065,None,908.2111649760045,916.6057997266762,908.2111649760045,916.6057997266762,916.6057997266762,None,916.6057997266762,None,space,0.3405982539989054,916.6057997266762,None,8.3939,916.967452625744,None,,,,,,,003-1,001,2022_Apr_06_1523,2-25_cond_decay,2021.2.3,164.68656296418624,
left,1.0,0.75,1,1,0,1,0,3,0,3,0,1,0,10,3,,,,,,,,,,,,,,,10s,917.9686172707006,918.9689833889715,918.9634256637655,None,919.9632786540315,923.8467458807863,919.9632786540315,923.8467458807863,923.8402581899427,None,923.8402581899427,None,space,0.3621501266025007,923.8402581899427,None,3.8746,924.2159346127883,None,,,,,,,003-1,001,2022_Apr_06_1523,2-25_cond_decay,2021.2.3,164.68656296418624,
left,0.75,1.0,0,1,0,1,0,3,0,3,0,1,1,11,4,,,,,,,,,,,,,,,10s,925.2177291996777,926.2169523229823,926.2112040547654,None,927.2115950207226,932.49603281077,927.2115950207226,932.49603281077,932.49603281077,None,932.49603281077,None,space,0.3143621487542987,932.49603281077,None,5.2835,932.8223990318365,None,,,,,,,003-1,001,2022_Apr_06_1523,2-25_cond_decay,2021.2.3,164.68656296418624,
right,1.0,0.75,0,1,0,1,0,3,0,3,0,1,2,12,6,,,,,,,,,,,,,,,10s,933.8279606997967,934.8296421719715,934.822838626802,None,935.8233255059458,943.252531870734,935.8233255059458,943.252531870734,943.2457901299931,None,943.2457901299931,None,space,0.41255588410422206,943.2457901299931,None,7.4215,943.6703210878186,None,,,,,,,003-1,001,2022_Apr_06_1523,2-25_cond_decay,2021.2.3,164.68656296418624,
right,1.0,0.75,0,1,0,1,0,3,0,3,0,1,3,13,8,,,,,,,,,,,,,,,10s,944.6712564737536,945.6712150098756,945.665492456872,None,946.665683792904,955.9980352767743,946.665683792904,955.9980352767743,955.9912934368476,None,955.9912934368476,None,space,0.34702992998063564,955.9912934368476,None,9.3237,956.3609614600427,None,,,,,,,003-1,001,2022_Apr_06_1523,2-25_cond_decay,2021.2.3,164.68656296418624,
left,0.75,1.0,0,1,0,1,0,3,0,3,0,1,4,14,7,,,,,,,,,,,,,,,10s,957.3675213498063,958.3680127267726,958.3623127299361,None,959.3627701858059,968.2761317268014,959.3627701858059,968.2761317268014,968.2696169130504,None,968.2696169130504,None,space,0.3967859079129994,968.2696169130504,None,8.9066,968.6835959497839,None,,,,,,,003-1,001,2022_Apr_06_1523,2-25_cond_decay,2021.2.3,164.68656296418624,
left,0.75,1.0,0,1,0,1,0,3,0,3,0,1,5,15,1,,,,,,,,,,,,,,,10s,969.6834730817936,970.6837042747065,970.6769550088793,None,971.6776822367683,976.1789393387735,971.6776822367683,976.1789393387735,976.1724695251323,None,976.1724695251323,None,None,,976.1724695251323,None,4.4941,977.184667611029,None,,,,,,,003-1,001,2022_Apr_06_1523,2-25_cond_decay,2021.2.3,164.68656296418624,
right,1.0,0.75,0,1,0,1,0,3,0,3,0,1,6,16,5,,,,,,,,,,,,,,,10s,978.1857129130512,979.1864128056914,979.1807229937986,None,980.1804035347886,986.804930980783,980.1804035347886,986.804930980783,986.804930980783,None,986.804930980783,None,space,0.27741639502346516,986.804930980783,None,6.6242,987.0998765500262,None,,,,,,,003-1,001,2022_Apr_06_1523,2-25_cond_decay,2021.2.3,164.68656296418624,
left,0.75,1.0,0,1,0,1,0,3,0,3,0,1,7,17,0,,,,,,,,,,,,,,,10s,988.1005790107884,989.1013189898804,989.0956608639099,None,990.0949910548516,991.9379991688766,990.0949910548516,991.9379991688766,991.9379991688766,None,991.9379991688766,None,space,0.6804057909175754,991.9379991688766,None,1.8401,992.6345879430883,None,,,,,,,003-1,001,2022_Apr_06_1523,2-25_cond_decay,2021.2.3,164.68656296418624,
right,1.0,0.75,0,1,0,1,0,3,0,3,0,1,8,18,2,,,,,,,,,,,,,,,10s,993.6392921437509,994.640608325135,994.6348030781373,None,995.6342165591195,1001.7736321599223,995.6342165591195,1001.7736321599223,1001.7682008440606,None,1001.7682008440606,None,space,0.17820204608142376,1001.7682008440606,None,6.136,1001.9668437787332,None,,,,,,,003-1,001,2022_Apr_06_1523,2-25_cond_decay,2021.2.3,164.68656296418624,
right,0.75,1.0,1,1,0,1,0,3,0,3,0,1,9,19,9,,,,,,,,,,,,,,,10s,1002.9675203720108,1003.9673211909831,1003.9615872120485,None,1004.9620971269906,1008.9430865570903,1004.9620971269906,1008.9430865570903,1008.9365965048783,None,1008.9365965048783,None,None,,1008.9365965048783,None,3.9727,1009.9485462848097,None,,,,,,,003-1,001,2022_Apr_06_1523,2-25_cond_decay,2021.2.3,164.68656296418624,
,,,,1,0,1,0,3,0,3,0,,,,,,,,,,,,,,,,,,,,,,,,,,,,,,,,,,,,,,,,,,,,,003-1,001,2022_Apr_06_1523,2-25_cond_decay,2021.2.3,164.68656296418624,
,,,,1,0,1,0,,,,,,,,,,,,,,,,,,,,,,,,,,,,,,,,,,,,,,,,,,,1010.9548371518031,None,1010.9548371518031,None,1010.9548371518031,None,003-1,001,2022_Apr_06_1523,2-25_cond_decay,2021.2.3,164.68656296418624,
left,0.75,1.0,0,2,0,2,0,0,0,0,0,0,0,0,1,,,,,,,,,1015.9607052928768,None,1015.9607052928768,None,1015.9607052928768,None,1s,1038.1476825117134,1039.149107541889,1039.1368234590627,None,1040.137463978026,1041.0578712518327,1040.137463978026,1041.0578712518327,1041.0578712518327,None,1041.0578712518327,None,space,0.27247005328536034,1041.0578712518327,None,0.9159,1041.3473896058276,None,,,,,,,003-1,001,2022_Apr_06_1523,2-25_cond_decay,2021.2.3,164.68656296418624,
right,1.0,0.75,0,2,0,2,0,0,0,0,0,0,1,1,3,,,,,,,,,,,,,,,1s,1042.3475110279396,1043.3489258387126,1043.3433303521015,None,1044.3434610990807,1044.6450136280619,1044.3434610990807,1044.6450136280619,1044.6383087220602,None,1044.6383087220602,None,space,0.32410871982574463,1044.6383087220602,None,0.2919,1044.979699487798,None,,,,,,,003-1,001,2022_Apr_06_1523,2-25_cond_decay,2021.2.3,164.68656296418624,
right,1.0,0.75,0,2,0,2,0,0,0,0,0,0,2,2,8,,,,,,,,,,,,,,,1s,1045.9794731927104,1046.9795158607885,1046.9736637920141,None,1047.973527213093,1048.573121346999,1047.973527213093,1048.573121346999,1048.5676477169618,None,1048.5676477169618,None,space,0.21869351901113987,1048.5676477169618,None,0.5946,1048.8036925201304,None,,,,,,,003-1,001,2022_Apr_06_1523,2-25_cond_decay,2021.2.3,164.68656296418624,
right,1.0,0.75,0,2,0,2,0,0,0,0,0,0,3,3,6,,,,,,,,,,,,,,,1s,1049.8039590790868,1050.803809709847,1050.7970009930432,None,1051.7974372799508,1052.4887579549104,1051.7974372799508,1052.4887579549104,1052.4887579549104,None,1052.4887579549104,None,space,0.273629492148757,1052.4887579549104,None,0.6902,1052.7844736627303,None,,,,,,,003-1,001,2022_Apr_06_1523,2-25_cond_decay,2021.2.3,164.68656296418624,
left,0.75,1.0,0,2,0,2,0,0,0,0,0,0,4,4,7,,,,,,,,,,,,,,,1s,1053.7897688718513,1054.7915088026784,1054.7847738359123,None,1055.785470224917,1056.7003079759888,1055.785470224917,1056.7003079759888,1056.6948148817755,None,1056.6948148817755,None,space,0.25159847689792514,1056.6948148817755,None,0.9126,1056.9599099056795,None,,,,,,,003-1,001,2022_Apr_06_1523,2-25_cond_decay,2021.2.3,164.68656296418624,
left,0.75,1.0,0,2,0,2,0,0,0,0,0,0,5,5,4,,,,,,,,,,,,,,,1s,1057.9614110370167,1058.9605987118557,1058.9548712461255,None,1059.954366976861,1060.7182027888484,1059.954366976861,1060.7182027888484,1060.7128157070838,None,1060.7128157070838,None,space,0.2735215211287141,1060.7128157070838,None,0.7595,1061.008521137759,None,,,,,,,003-1,001,2022_Apr_06_1523,2-25_cond_decay,2021.2.3,164.68656296418624,
left,1.0,0.75,1,2,0,2,0,0,0,0,0,0,6,6,2,,,,,,,,,,,,,,,1s,1062.0092904479243,1063.0098050930537,1063.0030461330898,None,1064.0036167949438,1064.7970933387987,1064.0036167949438,1064.7970933387987,1064.7970933387987,None,1064.7970933387987,None,space,0.2533177058212459,1064.7970933387987,None,0.7934,1065.062664964702,None,,,,,,,003-1,001,2022_Apr_06_1523,2-25_cond_decay,2021.2.3,164.68656296418624,
right,1.0,0.75,0,2,0,2,0,0,0,0,0,0,7,7,5,,,,,,,,,,,,,,,1s,1066.0687897088937,1067.0704682250507,1067.063529024832,None,1068.0640460690483,1068.6271960306913,1068.0640460690483,1068.6271960306913,1068.621838470921,None,1068.621838470921,None,space,0.43662467831745744,1068.621838470921,None,0.5615,1069.0760727156885,None,,,,,,,003-1,001,2022_Apr_06_1523,2-25_cond_decay,2021.2.3,164.68656296418624,
left,0.75,1.0,0,2,0,2,0,0,0,0,0,0,8,8,9,,,,,,,,,,,,,,,1s,1070.08110842295,1071.0815674117766,1071.0758082680404,None,1072.075723302085,1072.894177566748,1072.075723302085,1072.894177566748,1072.8884411817417,None,1072.8884411817417,None,space,0.28997408831492066,1072.8884411817417,None,0.815,1073.1894272491336,None,,,,,,,003-1,001,2022_Apr_06_1523,2-25_cond_decay,2021.2.3,164.68656296418624,
left,0.75,1.0,0,2,0,2,0,0,0,0,0,0,9,9,0,,,,,,,,,,,,,,,1s,1074.191057274118,1075.1909892419353,1075.18531547999,None,1076.1847259318456,1076.6147911190055,1076.1847259318456,1076.6147911190055,1076.6147911190055,None,1076.6147911190055,None,space,0.3156176027841866,1076.6147911190055,None,0.4286,1076.9417446129955,None,,,,,,,003-1,001,2022_Apr_06_1523,2-25_cond_decay,2021.2.3,164.68656296418624,
left,1.0,0.75,1,2,0,2,0,0,0,0,0,1,0,10,2,,,,,,,,,,,,,,,1s,1077.9426463698037,1078.9422107790597,1078.9365015639924,None,1079.9363614181057,1080.8813922731206,1079.9363614181057,1080.8813922731206,1080.8748212046921,None,1080.8748212046921,None,space,0.23151798406615853,1080.8748212046921,None,0.9347,1081.1173965707421,None,,,,,,,003-1,001,2022_Apr_06_1523,2-25_cond_decay,2021.2.3,164.68656296418624,
right,0.75,1.0,1,2,0,2,0,0,0,0,0,1,1,11,1,,,,,,,,,,,,,,,1s,1082.1226598569192,1083.1244573560543,1083.1186239137314,None,1084.118085138034,1084.481377137825,1084.118085138034,1084.481377137825,1084.481377137825,None,1084.481377137825,None,space,0.3610447496175766,1084.481377137825,None,0.3624,1084.8618781147525,None,,,,,,,003-1,001,2022_Apr_06_1523,2-25_cond_decay,2021.2.3,164.68656296418624,
right,1.0,0.75,0,2,0,2,0,0,0,0,0,1,2,12,3,,,,,,,,,,,,,,,1s,1085.863827096764,1086.8638553237543,1086.8570544640534,None,1087.85799506912,1088.4338397048414,1087.85799506912,1088.4338397048414,1088.4338397048414,None,1088.4338397048414,None,space,0.31258310470730066,1088.4338397048414,None,0.575,1088.7597005548887,None,,,,,,,003-1,001,2022_Apr_06_1523,2-25_cond_decay,2021.2.3,164.68656296418624,
left,0.75,1.0,0,2,0,2,0,0,0,0,0,1,3,13,4,,,,,,,,,,,,,,,1s,1089.76514644688,1090.7670095260255,1090.7609598129056,None,1091.7605370879173,1092.7297170138918,1091.7605370879173,1092.7297170138918,1092.7243437040597,None,1092.7243437040597,None,space,0.326086503919214,1092.7243437040597,None,0.9641,1093.0622435291298,None,,,,,,,003-1,001,2022_Apr_06_1523,2-25_cond_decay,2021.2.3,164.68656296418624,
right,1.0,0.75,0,2,0,2,0,0,0,0,0,1,4,14,6,,,,,,,,,,,,,,,1s,1094.0684489267878,1095.0690530738793,1095.0629679188132,None,1096.0635062940419,1096.6155411996879,1096.0635062940419,1096.6155411996879,1096.6079649440944,None,1096.6079649440944,None,space,0.39439197024330497,1096.6079649440944,None,0.5412,1097.0134219378233,None,,,,,,,003-1,001,2022_Apr_06_1523,2-25_cond_decay,2021.2.3,164.68656296418624,
left,0.75,1.0,0,2,0,2,0,0,0,0,0,1,5,15,9,,,,,,,,,,,,,,,1s,1098.0199047657661,1099.021379543934,1099.0152801387012,None,1100.0144785968587,1100.5905541437678,1100.0144785968587,1100.5905541437678,1100.5905541437678,None,1100.5905541437678,None,space,0.3718678210861981,1100.5905541437678,None,0.5757,1100.9789171637967,None,,,,,,,003-1,001,2022_Apr_06_1523,2-25_cond_decay,2021.2.3,164.68656296418624,
right,1.0,0.75,0,2,0,2,0,0,0,0,0,1,6,16,8,,,,,,,,,,,,,,,1s,1101.9827996147797,1102.9849049248733,1102.9780225069262,None,1103.9788372269832,1104.7841218258254,1103.9788372269832,1104.7841218258254,1104.7787604820915,None,1104.7787604820915,None,space,0.34360091015696526,1104.7787604820915,None,0.8001,1105.1351254996844,None,,,,,,,003-1,001,2022_Apr_06_1523,2-25_cond_decay,2021.2.3,164.68656296418624,
left,0.75,1.0,0,2,0,2,0,0,0,0,0,1,7,17,0,,,,,,,,,,,,,,,1s,1106.1404835670255,1107.1420602956787,1107.1362045109272,None,1108.1361764320172,1108.717464393936,1108.1361764320172,1108.717464393936,1108.7121165338904,None,1108.7121165338904,None,space,0.44228625716641545,1108.7121165338904,None,0.5772,1109.1646743570454,None,,,,,,,003-1,001,2022_Apr_06_1523,2-25_cond_decay,2021.2.3,164.68656296418624,
right,1.0,0.75,0,2,0,2,0,0,0,0,0,1,8,18,5,,,,,,,,,,,,,,,1s,1110.171320056077,1111.1721937847324,1111.1663321778178,None,1112.1660483716987,1112.923868201673,1112.1660483716987,1112.923868201673,1112.9181183027104,None,1112.9181183027104,None,space,0.3082993049174547,1112.9181183027104,None,0.7532,1113.2376657128334,None,,,,,,,003-1,001,2022_Apr_06_1523,2-25_cond_decay,2021.2.3,164.68656296418624,
left,0.75,1.0,0,2,0,2,0,0,0,0,0,1,9,19,7,,,,,,,,,,,,,,,1s,1114.2432964621112,1115.2449217997491,1115.2392519768327,None,1116.2391533027403,1117.1841043257155,1116.2391533027403,1117.1841043257155,1117.1775208599865,None,1117.1775208599865,None,space,0.3528289897367358,1117.1775208599865,None,0.9358,1117.5480089490302,None,,,,,,,003-1,001,2022_Apr_06_1523,2-25_cond_decay,2021.2.3,164.68656296418624,
,,,,2,0,2,0,0,0,0,0,,,,,,,,,,,,,,,,,,,,,,,,,,,,,,,,,,,,,,,,,,,,,003-1,001,2022_Apr_06_1523,2-25_cond_decay,2021.2.3,164.68656296418624,
left,0.75,1.0,0,2,0,2,0,1,0,1,0,0,0,0,1,,,,,,,,,1118.5583290057257,None,1118.5583290057257,None,1118.5583290057257,None,5s,1119.3542815339752,1120.3542810417712,1120.342143073678,None,1121.3422966510989,1125.238920466043,1121.3422966510989,1125.238920466043,1125.238920466043,None,1125.238920466043,None,space,0.315432227216661,1125.238920466043,None,3.8941,1125.5768471430056,None,,,,,,,003-1,001,2022_Apr_06_1523,2-25_cond_decay,2021.2.3,164.68656296418624,
right,1.0,0.75,0,2,0,2,0,1,0,1,0,0,1,1,4,,,,,,,,,,,,,,,5s,1126.5831995690241,1127.583972658962,1127.5782092469744,None,1128.5783024397679,1129.9300581230782,1128.5783024397679,1129.9300581230782,1129.9300581230782,None,1129.9300581230782,None,space,0.30435487534850836,1129.9300581230782,None,1.3499,1130.25617181696,None,,,,,,,003-1,001,2022_Apr_06_1523,2-25_cond_decay,2021.2.3,164.68656296418624,
right,1.0,0.75,0,2,0,2,0,1,0,1,0,0,2,2,5,,,,,,,,,,,,,,,5s,1131.2563938540407,1132.2568783797324,1132.2511865580454,None,1133.2507621836849,1134.0447374950163,1133.2507621836849,1134.0447374950163,1134.0447374950163,None,1134.0447374950163,None,space,0.3576791239902377,1134.0447374950163,None,0.7926,1134.4137569358572,None,,,,,,,003-1,001,2022_Apr_06_1523,2-25_cond_decay,2021.2.3,164.68656296418624,
left,0.75,1.0,0,2,0,2,0,1,0,1,0,0,3,3,9,,,,,,,,,,,,,,,5s,1135.4191010338254,1136.4206836810336,1136.4138887911104,None,1137.4146914589219,1138.6867405930534,1137.4146914589219,1138.6867405930534,1138.6867405930534,None,1138.6867405930534,None,space,0.3636473589576781,1138.6867405930534,None,1.273,1139.061244357843,None,,,,,,,003-1,001,2022_Apr_06_1523,2-25_cond_decay,2021.2.3,164.68656296418624,
left,0.75,1.0,0,2,0,2,0,1,0,1,0,0,4,4,7,,,,,,,,,,,,,,,5s,1140.0632844087668,1141.0632472969592,1141.0565437381156,None,1142.0562743800692,1142.75847368408,1142.0562743800692,1142.75847368408,1142.7519265711308,None,1142.7519265711308,None,space,0.41844981210306287,1142.7519265711308,None,0.6948,1143.1824637018144,None,,,,,,,003-1,001,2022_Apr_06_1523,2-25_cond_decay,2021.2.3,164.68656296418624,
right,0.75,1.0,1,2,0,2,0,1,0,1,0,0,5,5,3,,,,,,,,,,,,,,,5s,1144.1890312898904,1145.1897528250702,1145.1840651370585,None,1146.1839186670259,1149.1660256199539,1146.1839186670259,1149.1660256199539,1149.1660256199539,None,1149.1660256199539,None,space,0.3084251834079623,1149.1660256199539,None,2.9806,1149.486266840715,None,,,,,,,003-1,001,2022_Apr_06_1523,2-25_cond_decay,2021.2.3,164.68656296418624,
right,1.0,0.75,0,2,0,2,0,1,0,1,0,0,6,6,0,,,,,,,,,,,,,,,5s,1150.4865242429078,1151.4871983570047,1151.4803377920762,None,1152.4803968877532,1157.0325675248168,1152.4803968877532,1157.0325675248168,1157.0325675248168,None,1157.0325675248168,None,space,0.3218527571298182,1157.0325675248168,None,4.5493,1157.3716661478393,None,,,,,,,003-1,001,2022_Apr_06_1523,2-25_cond_decay,2021.2.3,164.68656296418624,
left,0.75,1.0,0,2,0,2,0,1,0,1,0,0,7,7,6,,,,,,,,,,,,,,,5s,1158.376141956076,1159.3775274888612,1159.371962856967,None,1160.371221973095,1164.4745403798297,1160.371221973095,1164.4745403798297,1164.4689155509695,None,1164.4689155509695,None,space,0.3415067601017654,1164.4689155509695,None,4.0995,1164.8305782848038,None,,,,,,,003-1,001,2022_Apr_06_1523,2-25_cond_decay,2021.2.3,164.68656296418624,
left,0.75,1.0,0,2,0,2,0,1,0,1,0,0,8,8,2,,,,,,,,,,,,,,,5s,1165.8326426479034,1166.837743606884,1166.8256380120292,None,1167.825629956089,1170.3104181201197,1167.825629956089,1170.3104181201197,1170.3039762270637,None,1170.3039762270637,None,space,0.4904530718922615,1170.3039762270637,None,2.4759,1170.8064989047125,None,,,,,,,003-1,001,2022_Apr_06_1523,2-25_cond_decay,2021.2.3,164.68656296418624,
left,1.0,0.75,1,2,0,2,0,1,0,1,0,0,9,9,8,,,,,,,,,,,,,,,5s,1171.8082817001268,1172.8074576798826,1172.8017419581302,None,1173.8022248479538,1177.1051107067615,1173.8022248479538,1177.1051107067615,1177.1051107067615,None,1177.1051107067615,None,space,0.337262490298599,1177.1051107067615,None,3.3018,1177.4544651927426,None,,,,,,,003-1,001,2022_Apr_06_1523,2-25_cond_decay,2021.2.3,164.68656296418624,
left,0.75,1.0,0,2,0,2,0,1,0,1,0,1,0,10,6,,,,,,,,,,,,,,,5s,1178.456154000014,1179.4562728106976,1179.4506085100584,None,1180.4501328896731,1184.6927057160065,1180.4501328896731,1184.6927057160065,1184.6927057160065,None,1184.6927057160065,None,space,0.34172999300062656,1184.6927057160065,None,4.2411,1185.0543969357386,None,,,,,,,003-1,001,2022_Apr_06_1523,2-25_cond_decay,2021.2.3,164.68656296418624,
left,0.75,1.0,0,2,0,2,0,1,0,1,0,1,1,11,7,,,,,,,,,,,,,,,5s,1186.0559560670517,1187.0564061091281,1187.0497310101055,None,1188.0494756838307,1188.2183392918669,1188.0494756838307,1188.2183392918669,1188.211995251011,None,1188.211995251011,None,space,0.5424407860264182,1188.211995251011,None,0.1609,1188.7714363550767,None,,,,,,,003-1,001,2022_Apr_06_1523,2-25_cond_decay,2021.2.3,164.68656296418624,
right,1.0,0.75,0,2,0,2,0,1,0,1,0,1,2,12,4,,,,,,,,,,,,,,,5s,1189.7756689260714,1190.7776752901264,1190.7708584140055,None,1191.7714445409365,1195.4792355769314,1191.7714445409365,1195.4792355769314,1195.4726920491084,None,1195.4726920491084,None,space,0.40165980672463775,1195.4726920491084,None,3.6993,1195.896707248874,None,,,,,,,003-1,001,2022_Apr_06_1523,2-25_cond_decay,2021.2.3,164.68656296418624,
left,0.75,1.0,0,2,0,2,0,1,0,1,0,1,3,13,2,,,,,,,,,,,,,,,5s,1196.9027230478823,1197.9040656089783,1197.8984589637257,None,1198.8982810918242,1203.5161512000486,1198.8982810918242,1203.5161512000486,1203.5161512000486,None,1203.5161512000486,None,space,0.34228322887793183,1203.5161512000486,None,4.6179,1203.8793417150155,None,,,,,,,003-1,001,2022_Apr_06_1523,2-25_cond_decay,2021.2.3,164.68656296418624,
right,1.0,0.75,0,2,0,2,0,1,0,1,0,1,4,14,0,,,,,,,,,,,,,,,5s,1204.8847546628676,1205.8860742249526,1205.8803395307623,None,1206.8797330111265,1211.4787703407928,1206.8797330111265,1211.4787703407928,1211.4720529150218,None,1211.4720529150218,None,space,0.3383817230351269,1211.4720529150218,None,4.5903,1211.829700180795,None,,,,,,,003-1,001,2022_Apr_06_1523,2-25_cond_decay,2021.2.3,164.68656296418624,
left,0.75,1.0,0,2,0,2,0,1,0,1,0,1,5,15,9,,,,,,,,,,,,,,,5s,1212.8366395947523,1213.8378585251048,1213.8310604267754,None,1214.8318518931046,1218.7526509948075,1214.8318518931046,1218.7526509948075,1218.7526509948075,None,1218.7526509948075,None,space,0.4497783752158284,1218.7526509948075,None,3.9196,1219.2194716469385,None,,,,,,,003-1,001,2022_Apr_06_1523,2-25_cond_decay,2021.2.3,164.68656296418624,
right,1.0,0.75,0,2,0,2,0,1,0,1,0,1,6,16,1,,,,,,,,,,,,,,,5s,1220.2236700137146,1221.2255688291043,1221.2187471357174,None,1222.2192075378262,1223.4788268590346,1222.2192075378262,1223.4788268590346,1223.4722922979854,None,1223.4722922979854,None,space,0.6421603709459305,1223.4722922979854,None,1.251,1224.1272771917284,None,,,,,,,003-1,001,2022_Apr_06_1523,2-25_cond_decay,2021.2.3,164.68656296418624,
right,0.75,1.0,1,2,0,2,0,1,0,1,0,1,7,17,3,,,,,,,,,,,,,,,5s,1225.1277696480975,1226.1278103641234,1226.1220522937365,None,1227.1224811179563,1231.5037163137458,1227.1224811179563,1231.5037163137458,1231.5037163137458,None,1231.5037163137458,None,space,0.5466543817892671,1231.5037163137458,None,4.3815,1232.071882486809,None,,,,,,,003-1,001,2022_Apr_06_1523,2-25_cond_decay,2021.2.3,164.68656296418624,
left,1.0,0.75,1,2,0,2,0,1,0,1,0,1,8,18,8,,,,,,,,,,,,,,,5s,1233.0783020388335,1234.0799823268317,1234.0731261759065,None,1235.0738064530306,1236.8060306319967,1235.0738064530306,1236.8060306319967,1236.7993374760263,None,1236.7993374760263,None,space,0.37103766202926636,1236.7993374760263,None,1.7228,1237.1813351488672,None,,,,,,,003-1,001,2022_Apr_06_1523,2-25_cond_decay,2021.2.3,164.68656296418624,
right,1.0,0.75,0,2,0,2,0,1,0,1,0,1,9,19,5,,,,,,,,,,,,,,,5s,1238.1869688699953,1239.1883361497894,1239.1826479807496,None,1240.1827435949817,1242.999729600735,1240.1827435949817,1242.999729600735,1242.9932024120353,None,1242.9932024120353,None,space,0.41716264886781573,1242.9932024120353,None,2.8085,1243.4234415311366,None,,,,,,,003-1,001,2022_Apr_06_1523,2-25_cond_decay,2021.2.3,164.68656296418624,
,,,,2,0,2,0,1,0,1,0,,,,,,,,,,,,,,,,,,,,,,,,,,,,,,,,,,,,,,,,,,,,,003-1,001,2022_Apr_06_1523,2-25_cond_decay,2021.2.3,164.68656296418624,
left,0.75,1.0,0,2,0,2,0,2,0,2,0,0,0,0,2,,,,,,,,,1244.4362815851346,None,1244.4362815851346,None,1244.4362815851346,None,3s,1249.6780712767504,1250.6790322368033,1250.6670997869223,None,1251.6671847309917,1251.8795081470162,1251.6671847309917,1251.8795081470162,1251.8795081470162,None,1251.8795081470162,None,space,0.5628956006839871,1251.8795081470162,None,0.2108,1252.4544365960173,None,,,,,,,003-1,001,2022_Apr_06_1523,2-25_cond_decay,2021.2.3,164.68656296418624,
left,0.75,1.0,0,2,0,2,0,2,0,2,0,0,1,1,9,,,,,,,,,,,,,,,3s,1253.4548444477841,1254.454775644932,1254.4490743470378,None,1255.449089305941,1258.406230878085,1255.449089305941,1258.406230878085,1258.3996424637735,None,1258.3996424637735,None,space,0.3147989069111645,1258.3996424637735,None,2.9471,1258.7263620840386,None,,,,,,,003-1,001,2022_Apr_06_1523,2-25_cond_decay,2021.2.3,164.68656296418624,
right,1.0,0.75,0,2,0,2,0,2,0,2,0,0,2,2,8,,,,,,,,,,,,,,,3s,1259.7322743777186,1260.7337844478898,1260.72797225276,None,1261.7275094641373,1263.430664408952,1261.7275094641373,1263.430664408952,1263.430664408952,None,1263.430664408952,None,space,0.32377045368775725,1263.430664408952,None,1.7017,1263.7694088360295,None,,,,,,,003-1,001,2022_Apr_06_1523,2-25_cond_decay,2021.2.3,164.68656296418624,
left,0.75,1.0,0,2,0,2,0,2,0,2,0,0,3,3,4,,,,,,,,,,,,,,,3s,1264.774621612858,1265.7760730059817,1265.770460694097,None,1266.7699768599123,1266.9279202991165,1266.7699768599123,1266.9279202991165,1266.9279202991165,None,1266.9279202991165,None,space,0.4905168628320098,1266.9279202991165,None,0.1572,1267.4298923108727,None,,,,,,,003-1,001,2022_Apr_06_1523,2-25_cond_decay,2021.2.3,164.68656296418624,
left,1.0,0.75,1,2,0,2,0,2,0,2,0,0,4,4,0,,,,,,,,,,,,,,,3s,1268.4313036850654,1269.430519708898,1269.4246711446904,None,1270.4243652517907,1271.8611093889922,1270.4243652517907,1271.8611093889922,1271.8611093889922,None,1271.8611093889922,None,space,0.3013271652162075,1271.8611093889922,None,1.4346,1272.1744521497749,None,,,,,,,003-1,001,2022_Apr_06_1523,2-25_cond_decay,2021.2.3,164.68656296418624,
right,1.0,0.75,0,2,0,2,0,2,0,2,0,0,5,5,1,,,,,,,,,,,,,,,3s,1273.1813755058683,1274.18211164698,1274.1763436431065,None,1275.1759538687766,1277.6912375879474,1275.1759538687766,1277.6912375879474,1277.6912375879474,None,1277.6912375879474,None,space,0.3351987227797508,1277.6912375879474,None,2.5152,1278.0426741898991,None,,,,,,,003-1,001,2022_Apr_06_1523,2-25_cond_decay,2021.2.3,164.68656296418624,
left,0.75,1.0,0,2,0,2,0,2,0,2,0,0,6,6,3,,,,,,,,,,,,,,,3s,1279.0477748140693,1280.0484516350552,1280.0427576028742,None,1281.042348251678,1282.0239451709203,1281.042348251678,1282.0239451709203,1282.0173884588294,None,1282.0173884588294,None,space,0.2970506907440722,1282.0173884588294,None,0.971,1282.3265463868156,None,,,,,,,003-1,001,2022_Apr_06_1523,2-25_cond_decay,2021.2.3,164.68656296418624,
right,0.75,1.0,1,2,0,2,0,2,0,2,0,0,7,7,5,,,,,,,,,,,,,,,3s,1283.33245208906,1284.3337180446833,1284.3268827670254,None,1285.3271133950911,1286.3514143307693,1285.3271133950911,1286.3514143307693,1286.3514143307693,None,1286.3514143307693,None,space,0.3869784730486572,1286.3514143307693,None,1.0225,1286.7503957869485,None,,,,,,,003-1,001,2022_Apr_06_1523,2-25_cond_decay,2021.2.3,164.68656296418624,
right,1.0,0.75,0,2,0,2,0,2,0,2,0,0,8,8,7,,,,,,,,,,,,,,,3s,1287.7516868659295,1288.7515690117143,1288.7459252090193,None,1289.7451301258989,1292.0065855137073,1289.7451301258989,1292.0065855137073,1292.0065855137073,None,1292.0065855137073,None,space,0.3877837657928467,1292.0065855137073,None,2.2602,1292.416459406726,None,,,,,,,003-1,001,2022_Apr_06_1523,2-25_cond_decay,2021.2.3,164.68656296418624,
left,0.75,1.0,0,2,0,2,0,2,0,2,0,0,9,9,6,,,,,,,,,,,,,,,3s,1293.4233678206801,1294.4238722110167,1294.418116375804,None,1295.4184620138258,1297.2609345419332,1295.4184620138258,1297.2609345419332,1297.2609345419332,None,1297.2609345419332,None,space,0.3334369659423828,1297.2609345419332,None,1.8418,1297.604415093083,None,,,,,,,003-1,001,2022_Apr_06_1523,2-25_cond_decay,2021.2.3,164.68656296418624,
left,1.0,0.75,1,2,0,2,0,2,0,2,0,1,0,10,0,,,,,,,,,,,,,,,3s,1298.6056693447754,1299.6054619830102,1299.5997267640196,None,1300.5997636197135,1301.5337295997888,1300.5997636197135,1301.5337295997888,1301.5337295997888,None,1301.5337295997888,None,space,0.3327330588363111,1301.5337295997888,None,0.9321,1301.8770463839173,None,,,,,,,003-1,001,2022_Apr_06_1523,2-25_cond_decay,2021.2.3,164.68656296418624,
left,0.75,1.0,0,2,0,2,0,2,0,2,0,1,1,11,3,,,,,,,,,,,,,,,3s,1302.8789925547317,1303.8787109167315,1303.8730411678553,None,1304.8729601660743,1306.8724321718328,1304.8729601660743,1306.8724321718328,1306.8724321718328,None,1306.8724321718328,None,space,0.3540101181715727,1306.8724321718328,None,2.0,1307.2465629717335,None,,,,,,,003-1,001,2022_Apr_06_1523,2-25_cond_decay,2021.2.3,164.68656296418624,
right,0.75,1.0,1,2,0,2,0,2,0,2,0,1,2,12,5,,,,,,,,,,,,,,,3s,1308.2527609649114,1309.2541295588017,1309.2483361400664,None,1310.2478039087728,1311.3874919079244,1310.2478039087728,1311.3874919079244,1311.3820532411337,None,1311.3820532411337,None,space,0.38839144771918654,1311.3820532411337,None,1.1355,1311.787776419893,None,,,,,,,003-1,001,2022_Apr_06_1523,2-25_cond_decay,2021.2.3,164.68656296418624,
left,0.75,1.0,0,2,0,2,0,2,0,2,0,1,3,13,4,,,,,,,,,,,,,,,3s,1312.7928167521022,1313.793673268985,1313.7879293691367,None,1314.787937787827,1315.3940579700284,1314.787937787827,1315.3940579700284,1315.3940579700284,None,1315.3940579700284,None,space,0.38437582924962044,1315.3940579700284,None,0.6039,1315.7938631139696,None,,,,,,,003-1,001,2022_Apr_06_1523,2-25_cond_decay,2021.2.3,164.68656296418624,
right,1.0,0.75,0,2,0,2,0,2,0,2,0,1,4,14,1,,,,,,,,,,,,,,,3s,1316.7983228010125,1317.799239623826,1317.7931857928634,None,1318.7940792399459,1319.4354810789227,1318.7940792399459,1319.4354810789227,1319.4354810789227,None,1319.4354810789227,None,space,0.5749769522808492,1319.4354810789227,None,0.6421,1320.022510074079,None,,,,,,,003-1,001,2022_Apr_06_1523,2-25_cond_decay,2021.2.3,164.68656296418624,
right,1.0,0.75,0,2,0,2,0,2,0,2,0,1,5,15,7,,,,,,,,,,,,,,,3s,1321.023404988926,1322.0244041290134,1322.01752101304,None,1323.017441506032,1325.7446735999547,1323.017441506032,1325.7446735999547,1325.7446735999547,None,1325.7446735999547,None,space,0.2977523598819971,1325.7446735999547,None,2.727,1326.0646413257346,None,,,,,,,003-1,001,2022_Apr_06_1523,2-25_cond_decay,2021.2.3,164.68656296418624,
left,0.75,1.0,0,2,0,2,0,2,0,2,0,1,6,16,9,,,,,,,,,,,,,,,3s,1327.071353181731,1328.0727665298618,1328.0657282928005,None,1329.0656628869474,1330.7994878906757,1329.0656628869474,1330.7994878906757,1330.7994878906757,None,1330.7994878906757,None,None,,1330.7994878906757,None,1.7322,1331.806007574778,None,,,,,,,003-1,001,2022_Apr_06_1523,2-25_cond_decay,2021.2.3,164.68656296418624,
right,1.0,0.75,0,2,0,2,0,2,0,2,0,1,7,17,2,,,,,,,,,,,,,,,3s,1332.8099132128991,1333.8118921667337,1333.8052072678693,None,1334.8050561076961,1336.3935400177725,1334.8050561076961,1336.3935400177725,1336.3935400177725,None,1336.3935400177725,None,space,0.2728861798532307,1336.3935400177725,None,1.5864,1336.689090914093,None,,,,,,,003-1,001,2022_Apr_06_1523,2-25_cond_decay,2021.2.3,164.68656296418624,
left,0.75,1.0,0,2,0,2,0,2,0,2,0,1,8,18,6,,,,,,,,,,,,,,,3s,1337.6951443040743,1338.695889214985,1338.6900859768502,None,1339.6897842818871,1341.374777564779,1339.6897842818871,1341.374777564779,1341.374777564779,None,1341.374777564779,None,space,0.2756746211089194,1341.374777564779,None,1.6852,1341.6709571420215,None,,,,,,,003-1,001,2022_Apr_06_1523,2-25_cond_decay,2021.2.3,164.68656296418624,
right,1.0,0.75,0,2,0,2,0,2,0,2,0,1,9,19,8,,,,,,,,,,,,,,,3s,1342.6773239579052,1343.6783522251062,1343.671646520961,None,1344.6722197309136,1346.7506614867598,1344.6722197309136,1346.7506614867598,1346.7506614867598,None,1346.7506614867598,None,space,0.25979854026809335,1346.7506614867598,None,2.0779,1347.0225625149906,None,,,,,,,003-1,001,2022_Apr_06_1523,2-25_cond_decay,2021.2.3,164.68656296418624,
,,,,2,0,2,0,2,0,2,0,,,,,,,,,,,,,,,,,,,,,,,,,,,,,,,,,,,,,,,,,,,,,003-1,001,2022_Apr_06_1523,2-25_cond_decay,2021.2.3,164.68656296418624,
right,1.0,0.75,0,2,0,2,0,3,0,3,0,0,0,0,4,,,,,,,,,1348.0337407290936,None,1348.0337407290936,None,1348.0337407290936,None,10s,1351.022512752097,1352.0235543828458,1352.011600186117,None,1353.011735741049,1360.1809180970304,1353.011735741049,1360.1809180970304,1360.1809180970304,None,1360.1809180970304,None,space,0.2775467103347182,1360.1809180970304,None,7.1682,1360.4707625517622,None,,,,,,,003-1,001,2022_Apr_06_1523,2-25_cond_decay,2021.2.3,164.68656296418624,
left,1.0,0.75,1,2,0,2,0,3,0,3,0,0,1,1,5,,,,,,,,,,,,,,,10s,1361.4770988048986,1362.4772645179182,1362.4715018169954,None,1363.4714277759194,1365.8599117570557,1363.4714277759194,1365.8599117570557,1365.8599117570557,None,1365.8599117570557,None,space,0.5024788859300315,1365.8599117570557,None,2.3856,1366.3737713899463,None,,,,,,,003-1,001,2022_Apr_06_1523,2-25_cond_decay,2021.2.3,164.68656296418624,
left,0.75,1.0,0,2,0,2,0,3,0,3,0,0,2,2,9,,,,,,,,,,,,,,,10s,1367.375034622848,1368.3749047131278,1368.3691137237474,None,1369.36910363473,1377.2530304570682,1369.36910363473,1377.2530304570682,1377.2475139158778,None,1377.2475139158778,None,space,0.3469355790875852,1377.2475139158778,None,7.8788,1377.615721649956,None,,,,,,,003-1,001,2022_Apr_06_1523,2-25_cond_decay,2021.2.3,164.68656296418624,
left,0.75,1.0,0,2,0,2,0,3,0,3,0,0,3,3,7,,,,,,,,,,,,,,,10s,1378.6169100347906,1379.616554399021,1379.6107966280542,1390.7259960658848,1380.6106076301076,1389.7363750380464,1380.6106076301076,1389.7363750380464,1389.7308853711002,None,1389.7308853711002,None,None,,1389.7308853711002,None,9.1161,1390.742421715986,None,,,,,,,003-1,001,2022_Apr_06_1523,2-25_cond_decay,2021.2.3,164.68656296418624,
right,1.0,0.75,0,2,0,2,0,3,0,3,0,0,4,4,8,,,,,,,,,,,,,,,10s,1391.7428243057802,1392.74391116295,1392.7381435157731,None,1393.7384121688083,1394.670804521069,1393.7384121688083,1394.670804521069,1394.6642517508008,None,1394.6642517508008,None,space,0.5782038429751992,1394.6642517508008,None,0.9223,1395.263767501805,None,,,,,,,003-1,001,2022_Apr_06_1523,2-25_cond_decay,2021.2.3,164.68656296418624,
right,1.0,0.75,0,2,0,2,0,3,0,3,0,0,5,5,6,,,,,,,,,,,,,,,10s,1396.2649298771285,1397.2653059586883,1397.2596089588478,None,1398.259147632867,1400.6889641918242,1398.259147632867,1400.6889641918242,1400.6889641918242,None,1400.6889641918242,None,space,0.3375000348314643,1400.6889641918242,None,2.4285,1401.0394668257795,None,,,,,,,003-1,001,2022_Apr_06_1523,2-25_cond_decay,2021.2.3,164.68656296418624,
right,1.0,0.75,0,2,0,2,0,3,0,3,0,0,6,6,3,,,,,,,,,,,,,,,10s,1402.0407772590406,1403.0404379917309,1403.0347185097635,None,1404.034964113962,1408.5486444188282,1404.034964113962,1408.5486444188282,1408.5422497070394,None,1408.5422497070394,None,space,0.29213720839470625,1408.5422497070394,None,4.5067,1408.8453259756789,None,,,,,,,003-1,001,2022_Apr_06_1523,2-25_cond_decay,2021.2.3,164.68656296418624,
left,0.75,1.0,0,2,0,2,0,3,0,3,0,0,7,7,2,,,,,,,,,,,,,,,10s,1409.8513811207376,1410.8532680477947,1410.8464657738805,None,1411.8464813749306,1419.2461595279165,1411.8464813749306,1419.2461595279165,1419.2461595279165,None,1419.2461595279165,None,space,0.3083209036849439,1419.2461595279165,None,7.3993,1419.5664170440286,None,,,,,,,003-1,001,2022_Apr_06_1523,2-25_cond_decay,2021.2.3,164.68656296418624,
right,1.0,0.75,0,2,0,2,0,3,0,3,0,0,8,8,0,,,,,,,,,,,,,,,10s,1420.5721559110098,1421.5740170199424,1421.5681866956875,None,1422.5676761097275,1426.4279405828565,1422.5676761097275,1426.4279405828565,1426.4214380420744,None,1426.4214380420744,None,space,0.397022086661309,1426.4214380420744,None,3.8508,1426.8348230407573,None,,,,,,,003-1,001,2022_Apr_06_1523,2-25_cond_decay,2021.2.3,164.68656296418624,
right,0.75,1.0,1,2,0,2,0,3,0,3,0,0,9,9,1,,,,,,,,,,,,,,,10s,1427.834866011981,1428.8343687360175,1428.828795272857,None,1429.8284660810605,1439.3852579998784,1429.8284660810605,1439.3852579998784,1439.3852579998784,None,1439.3852579998784,None,space,0.3051302400417626,1439.3852579998784,None,9.5581,1439.7121727927588,None,,,,,,,003-1,001,2022_Apr_06_1523,2-25_cond_decay,2021.2.3,164.68656296418624,
right,1.0,0.75,0,2,0,2,0,3,0,3,0,1,0,10,8,,,,,,,,,,,,,,,10s,1440.7125458940864,1441.7124707540497,1441.7066845139489,None,1442.7067383867688,1449.3661084920168,1442.7067383867688,1449.3661084920168,1449.3596660117619,None,1449.3596660117619,None,space,0.4428057479672134,1449.3596660117619,None,6.6514,1449.8144237357192,None,,,,,,,003-1,001,2022_Apr_06_1523,2-25_cond_decay,2021.2.3,164.68656296418624,
right,0.75,1.0,1,2,0,2,0,3,0,3,0,1,1,11,1,,,,,,,,,,,,,,,10s,1450.8162100468762,1451.816200457979,1451.8094591428526,1454.1791737871245,1452.810162305832,1453.1904607061297,1452.810162305832,1453.1904607061297,1453.1837971666828,None,1453.1837971666828,None,None,,1453.1837971666828,None,0.3708,1454.191782657057,None,,,,,,,003-1,001,2022_Apr_06_1523,2-25_cond_decay,2021.2.3,164.68656296418624,
left,0.75,1.0,0,2,0,2,0,3,0,3,0,1,2,12,9,,,,,,,,,,,,,,,10s,1455.1966377040371,1456.1972841680981,1456.1914348946884,None,1457.191097412724,1461.1614581970498,1457.191097412724,1461.1614581970498,1461.1614581970498,None,1461.1614581970498,None,space,0.4089962290599942,1461.1614581970498,None,3.9682,1461.5903617679141,None,,,,,,,003-1,001,2022_Apr_06_1523,2-25_cond_decay,2021.2.3,164.68656296418624,
left,0.75,1.0,0,2,0,2,0,3,0,3,0,1,3,13,2,,,,,,,,,,,,,,,10s,1462.5851655439474,1463.5859613628127,1463.5791226318106,None,1464.5788014158607,1465.390971928835,1464.5788014158607,1465.390971928835,1465.384573684074,None,1465.384573684074,None,space,0.473883047234267,1465.384573684074,None,0.8032,1465.881397651974,None,,,,,,,003-1,001,2022_Apr_06_1523,2-25_cond_decay,2021.2.3,164.68656296418624,
right,1.0,0.75,0,2,0,2,0,3,0,3,0,1,4,14,0,,,,,,,,,,,,,,,10s,1466.887223711703,1467.887966087088,1467.882255694829,None,1468.8818118828349,1472.287880667951,1468.8818118828349,1472.287880667951,1472.287880667951,None,1472.287880667951,None,None,,1472.287880667951,None,3.4056,1473.2949129417539,None,,,,,,,003-1,001,2022_Apr_06_1523,2-25_cond_decay,2021.2.3,164.68656296418624,
left,0.75,1.0,0,2,0,2,0,3,0,3,0,1,5,15,4,,,,,,,,,,,,,,,10s,1474.2994988868013,1475.3000888386741,1475.2943557207473,None,1476.2940311110578,1482.6158855417743,1476.2940311110578,1482.6158855417743,1482.6158855417743,None,1482.6158855417743,None,space,0.30657422402873635,1482.6158855417743,None,6.32,1482.941090399865,None,,,,,,,003-1,001,2022_Apr_06_1523,2-25_cond_decay,2021.2.3,164.68656296418624,
left,0.75,1.0,0,2,0,2,0,3,0,3,0,1,6,16,7,,,,,,,,,,,,,,,10s,1483.936441430822,1484.9367257859558,1484.9310160907917,None,1485.9304675329477,1490.2459278400056,1485.9304675329477,1490.2459278400056,1490.2459278400056,None,1490.2459278400056,None,space,0.5244757398031652,1490.2459278400056,None,4.3142,1490.7836576970294,None,,,,,,,003-1,001,2022_Apr_06_1523,2-25_cond_decay,2021.2.3,164.68656296418624,
left,1.0,0.75,1,2,0,2,0,3,0,3,0,1,7,17,5,,,,,,,,,,,,,,,10s,1491.7849500901066,1492.7849980387837,1492.7793477619998,None,1493.7789951809682,1495.8156982189976,1493.7789951809682,1495.8156982189976,1495.8156982189976,None,1495.8156982189976,None,space,0.4028044412843883,1495.8156982189976,None,2.0356,1496.2319807400927,None,,,,,,,003-1,001,2022_Apr_06_1523,2-25_cond_decay,2021.2.3,164.68656296418624,
right,1.0,0.75,0,2,0,2,0,3,0,3,0,1,8,18,3,,,,,,,,,,,,,,,10s,1497.2385218990967,1498.2395018767565,1498.233700525947,None,1499.2331259041093,1505.8318442436866,1499.2331259041093,1505.8318442436866,1505.825463626068,None,1505.825463626068,None,space,0.32101117027923465,1505.825463626068,None,6.5903,1506.1598767498508,None,,,,,,,003-1,001,2022_Apr_06_1523,2-25_cond_decay,2021.2.3,164.68656296418624,
right,1.0,0.75,0,2,0,2,0,3,0,3,0,1,9,19,6,,,,,,,,,,,,,,,10s,1507.1608390309848,1508.1608614339493,1508.1541497590952,None,1509.1544503639452,1518.595511360094,1509.1544503639452,1518.595511360094,1518.5889916978776,None,1518.5889916978776,None,space,0.34141363436356187,1518.5889916978776,None,9.4326,1518.9482843079604,None,,,,,,,003-1,001,2022_Apr_06_1523,2-25_cond_decay,2021.2.3,164.68656296418624,
,,,,2,0,2,0,3,0,3,0,,,,,,,,,,,,,,,,,,,,,,,,,,,,,,,,,,,,,,,,,,,,,003-1,001,2022_Apr_06_1523,2-25_cond_decay,2021.2.3,164.68656296418624,
,,,,2,0,2,0,,,,,,,,,,,,,,,,,,,,,,,,,,,,,,,,,,,,,,,,,,,1519.9540063189343,None,1519.9540063189343,None,1519.9540063189343,None,003-1,001,2022_Apr_06_1523,2-25_cond_decay,2021.2.3,164.68656296418624,
right,0.75,1.0,1,3,0,3,0,0,0,0,0,0,0,0,9,,,,,,,,,1524.9708837256767,None,1524.9708837256767,None,1524.9708837256767,None,5s,1553.2134284949861,1554.2138938307762,1554.2018449897878,None,1555.2026166231371,1558.6382009489462,1555.2026166231371,1558.6382009489462,1558.6382009489462,None,1558.6382009489462,None,space,0.3002768810838461,1558.6382009489462,None,3.4348,1558.958553253673,None,,,,,,,003-1,001,2022_Apr_06_1523,2-25_cond_decay,2021.2.3,164.68656296418624,
right,1.0,0.75,0,3,0,3,0,0,0,0,0,0,1,1,6,,,,,,,,,,,,,,,5s,1559.9602196197957,1560.9595049000345,1560.953840678092,None,1561.9540298609063,1564.6025961637497,1561.9540298609063,1564.6025961637497,1564.6025961637497,None,1564.6025961637497,None,space,0.31988886510953307,1564.6025961637497,None,2.6471,1564.934796276968,None,,,,,,,003-1,001,2022_Apr_06_1523,2-25_cond_decay,2021.2.3,164.68656296418624,
