attn_cue,left_ob,right_ob,congruent,runs.thisRepN,runs.thisTrialN,runs.thisN,runs.thisIndex,blocks.thisRepN,blocks.thisTrialN,blocks.thisN,blocks.thisIndex,trials.thisRepN,trials.thisTrialN,trials.thisN,trials.thisIndex,welcome.started,welcome.stopped,text_2.started,text_2.stopped,init_key_resp.keys,init_key_resp.rt,init_key_resp.started,init_key_resp.stopped,text_3.started,text_3.stopped,text_4.started,text_4.stopped,text_5.started,text_5.stopped,block_num,texter.started,texter.stopped,cross.started,cross.stopped,left_star.started,left_star.stopped,right_star.started,right_star.stopped,left_2.started,left_2.stopped,right_2.started,right_2.stopped,key_resp.keys,key_resp.started,key_resp.stopped,Rand Tim,text.started,text.stopped,key_resp.rt,end.started,end.stopped,text_6.started,text_6.stopped,text_7.started,text_7.stopped,participant,session,date,expName,psychopyVersion,frameRate,
,,,,,,,,,,,,,,,,411.24735839897767,None,411.24735839897767,None,space,2.9193324740044773,411.24735839897767,None,,,,,,,,,,,,,,,,,,,,,,,,,,,,,,,,,DEC019,001,2022_Nov_11_1340,2-25_cond_decay_EYE-try,2021.2.3,120.01439356575331,
right,1.0,0.75,0,0,0,0,0,0,0,0,0,0,0,0,4,,,,,,,,,414.1890418869443,None,414.1890418869443,None,414.1890418869443,None,1s,416.7724284690339,417.77244106307626,417.7640378768556,None,418.7641463850159,419.63075308687985,418.7641463850159,419.63075308687985,419.63075308687985,None,419.63075308687985,None,None,419.63075308687985,None,0.8656,420.76414205902256,None,,,,,,,,DEC019,001,2022_Nov_11_1340,2-25_cond_decay_EYE-try,2021.2.3,120.01439356575331,
left,0.75,1.0,0,0,0,0,0,0,0,0,0,0,1,1,7,,,,,,,,,,,,,,,1s,421.814122779062,422.8141254710499,422.8057718449272,None,423.8058267899323,424.3308099999558,423.8058267899323,424.3308099999558,424.3308099999558,None,424.3308099999558,None,None,424.3308099999558,None,0.5234,425.45452379994094,None,,,,,,,,DEC019,001,2022_Nov_11_1340,2-25_cond_decay_EYE-try,2021.2.3,120.01439356575331,
left,0.75,1.0,0,0,0,0,0,0,0,0,0,0,2,2,3,,,,,,,,,,,,,,,1s,426.5058399338741,427.5057818379719,427.497436091071,None,428.497454067925,428.9558596019633,428.497454067925,428.9558596019633,428.9475143728778,None,428.9475143728778,None,space,428.9475143728778,None,0.4511,429.429563682992,None,0.34218920511193573,,,,,,,DEC019,001,2022_Nov_11_1340,2-25_cond_decay_EYE-try,2021.2.3,120.01439356575331,
right,1.0,0.75,0,0,0,0,0,0,0,0,0,0,3,3,9,,,,,,,,,,,,,,,1s,430.48087232606485,431.48080834490247,431.47252737986855,None,432.4725504189264,433.33920829487033,432.4725504189264,433.33920829487033,433.33090445701964,None,433.33090445701964,None,space,433.33090445701964,None,0.8593,433.8142438689247,None,0.35052041593007743,,,,,,,DEC019,001,2022_Nov_11_1340,2-25_cond_decay_EYE-try,2021.2.3,120.01439356575331,
left,1.0,0.75,1,0,0,0,0,0,0,0,0,0,4,4,2,,,,,,,,,,,,,,,1s,434.87250586785376,435.872574019013,435.86420287005603,None,436.86426570103504,437.7892253140453,436.86426570103504,437.7892253140453,437.7892253140453,None,437.7892253140453,None,space,437.7892253140453,None,0.9237,438.62133521889336,None,0.7005414259620011,,,,,,,DEC019,001,2022_Nov_11_1340,2-25_cond_decay_EYE-try,2021.2.3,120.01439356575331,
right,1.0,0.75,0,0,0,0,0,0,0,0,0,0,5,5,8,,,,,,,,,,,,,,,1s,439.6809789228719,440.6809881730005,440.67264199000783,None,441.672591536073,442.6226914660074,441.672591536073,442.6226914660074,442.61436158488505,None,442.61436158488505,None,space,442.61436158488505,None,0.943,443.0643515898846,None,0.3171995261218399,,,,,,,DEC019,001,2022_Nov_11_1340,2-25_cond_decay_EYE-try,2021.2.3,120.01439356575331,
left,0.75,1.0,0,0,0,0,0,0,0,0,0,0,6,6,1,,,,,,,,,,,,,,,1s,444.12269730190746,445.12270103301853,445.11438334104605,None,446.11434674588963,446.7476694919169,446.11434674588963,446.7476694919169,446.7394020620268,None,446.7394020620268,None,space,446.7394020620268,None,0.6273,447.1810533669777,None,0.3108138679526746,,,,,,,DEC019,001,2022_Nov_11_1340,2-25_cond_decay_EYE-try,2021.2.3,120.01439356575331,
right,1.0,0.75,0,0,0,0,0,0,0,0,0,0,7,7,6,,,,,,,,,,,,,,,1s,448.23934997804463,449.23934568394907,449.2310245700646,None,450.2310389659833,451.0143662339542,450.2310389659833,451.0143662339542,451.0143662339542,None,451.0143662339542,None,space,451.0143662339542,None,0.7823,451.39777080202475,None,0.25243981392122805,,,,,,,DEC019,001,2022_Nov_11_1340,2-25_cond_decay_EYE-try,2021.2.3,120.01439356575331,
left,0.75,1.0,0,0,0,0,0,0,0,0,0,0,8,8,5,,,,,,,,,,,,,,,1s,452.4560471039731,453.4560524178669,453.4478033860214,None,454.44782022293657,455.41448784596287,454.44782022293657,455.41448784596287,455.40608430001885,None,455.40608430001885,None,space,455.40608430001885,None,0.9603,455.8048482830636,None,0.26724479789845645,,,,,,,DEC019,001,2022_Nov_11_1340,2-25_cond_decay_EYE-try,2021.2.3,120.01439356575331,
right,0.75,1.0,1,0,0,0,0,0,0,0,0,0,9,9,0,,,,,,,,,,,,,,,1s,456.86451020790264,457.8644605888985,457.85611795890145,None,458.85617766785435,459.09780022804625,458.85617766785435,459.09780022804625,459.08947864500806,None,459.08947864500806,None,space,459.08947864500806,None,0.2349,459.70619116188027,None,0.48585751792415977,,,,,,,DEC019,001,2022_Nov_11_1340,2-25_cond_decay_EYE-try,2021.2.3,120.01439356575331,
left,0.75,1.0,0,0,0,0,0,0,0,0,0,1,0,10,3,,,,,,,,,,,,,,,1s,460.76448087603785,461.76455918699503,461.75615300098434,None,462.756199558964,463.56449533090927,462.756199558964,463.56449533090927,463.56449533090927,None,463.56449533090927,None,space,463.56449533090927,None,0.8058,463.93957123393193,None,0.24413428897969425,,,,,,,DEC019,001,2022_Nov_11_1340,2-25_cond_decay_EYE-try,2021.2.3,120.01439356575331,
right,1.0,0.75,0,0,0,0,0,0,0,0,0,1,1,11,6,,,,,,,,,,,,,,,1s,464.9979177019559,465.9978757968638,465.9895221949555,None,466.9896103949286,467.93961703800596,466.9896103949286,467.93961703800596,467.93961703800596,None,467.93961703800596,None,space,467.93961703800596,None,0.9491,468.36461443197913,None,0.293979830108583,,,,,,,DEC019,001,2022_Nov_11_1340,2-25_cond_decay_EYE-try,2021.2.3,120.01439356575331,
right,1.0,0.75,0,0,0,0,0,0,0,0,0,1,2,12,8,,,,,,,,,,,,,,,1s,469.42167451186106,470.42298392998055,470.40630069794133,None,471.4062661388889,471.6645719988737,471.4062661388889,471.6645719988737,471.6645719988737,None,471.6645719988737,None,space,471.6645719988737,None,0.2564,472.25633613206446,None,0.45903290109708905,,,,,,,DEC019,001,2022_Nov_11_1340,2-25_cond_decay_EYE-try,2021.2.3,120.01439356575331,
left,0.75,1.0,0,0,0,0,0,0,0,0,0,1,3,13,5,,,,,,,,,,,,,,,1s,473.31331422389485,474.3146277309861,474.2980810289737,None,475.2980189858936,476.08130184793845,475.2980189858936,476.08130184793845,476.08130184793845,None,476.08130184793845,None,space,476.08130184793845,None,0.7787,476.4813728160225,None,0.26938555599190295,,,,,,,DEC019,001,2022_Nov_11_1340,2-25_cond_decay_EYE-try,2021.2.3,120.01439356575331,
left,0.75,1.0,0,0,0,0,0,0,0,0,0,1,4,14,7,,,,,,,,,,,,,,,1s,477.5313818429131,478.53138999803923,478.52307862089947,None,479.52303126687184,479.82299752300605,479.52303126687184,479.82299752300605,479.8146804170683,None,479.8146804170683,None,space,479.8146804170683,None,0.2954,480.3147430769168,None,0.36924289003945887,,,,,,,DEC019,001,2022_Nov_11_1340,2-25_cond_decay_EYE-try,2021.2.3,120.01439356575331,
right,1.0,0.75,0,0,0,0,0,0,0,0,0,1,5,15,9,,,,,,,,,,,,,,,1s,481.37310244794935,482.373075008858,482.3647628980689,None,483.3647855569143,483.57313554594293,483.3647855569143,483.57313554594293,483.57313554594293,None,483.57313554594293,None,space,483.57313554594293,None,0.2046,484.00645422702655,None,0.30051545705646276,,,,,,,DEC019,001,2022_Nov_11_1340,2-25_cond_decay_EYE-try,2021.2.3,120.01439356575331,
right,0.75,1.0,1,0,0,0,0,0,0,0,0,1,6,16,0,,,,,,,,,,,,,,,1s,485.064736364875,486.0649156610016,486.0564153608866,None,487.0564176819753,487.5148738930002,487.0564176819753,487.5148738930002,487.5148738930002,None,487.5148738930002,None,space,487.5148738930002,None,0.4565,487.9148308308795,None,0.268949227174744,,,,,,,DEC019,001,2022_Nov_11_1340,2-25_cond_decay_EYE-try,2021.2.3,120.01439356575331,
left,0.75,1.0,0,0,0,0,0,0,0,0,0,1,7,17,1,,,,,,,,,,,,,,,1s,488.97189127188176,489.9731261138804,489.9565286738798,None,490.95646355790086,491.4815352789592,490.95646355790086,491.4815352789592,491.4815352789592,None,491.4815352789592,None,space,491.4815352789592,None,0.5237,491.8815403650515,None,0.2690559739712626,,,,,,,DEC019,001,2022_Nov_11_1340,2-25_cond_decay_EYE-try,2021.2.3,120.01439356575331,
left,1.0,0.75,1,0,0,0,0,0,0,0,0,1,8,18,2,,,,,,,,,,,,,,,1s,492.93983450485393,493.93982299393974,493.93156327307224,None,494.9315654609818,495.85652338387445,494.9315654609818,495.85652338387445,495.84826047485694,None,495.84826047485694,None,space,495.84826047485694,None,0.9178,496.1732664820738,None,0.19416924007236958,,,,,,,DEC019,001,2022_Nov_11_1340,2-25_cond_decay_EYE-try,2021.2.3,120.01439356575331,
right,1.0,0.75,0,0,0,0,0,0,0,0,0,1,9,19,4,,,,,,,,,,,,,,,1s,497.2303128449712,498.23156336904503,498.21487518795766,None,499.21495589707047,499.62322394689545,499.21495589707047,499.62322394689545,499.62322394689545,None,499.62322394689545,None,space,499.62322394689545,None,0.4024,500.0803313308861,None,0.3255264279432595,,,,,,,DEC019,001,2022_Nov_11_1340,2-25_cond_decay_EYE-try,2021.2.3,120.01439356575331,
,,,,0,0,0,0,0,0,0,0,,,,,,,,,,,,,,,,,,,,,,,,,,,,,,,,,,,,,,,,,,,,,DEC019,001,2022_Nov_11_1340,2-25_cond_decay_EYE-try,2021.2.3,120.01439356575331,
right,0.75,1.0,1,0,0,0,0,1,0,1,0,0,0,0,9,,,,,,,,,500.9733131919056,None,500.9733131919056,None,500.9733131919056,None,3s,502.73168874392286,503.73160473885946,503.7232786130626,None,504.72328126686625,505.64835361600854,504.72328126686625,505.64835361600854,505.6399633658584,None,505.6399633658584,None,space,505.6399633658584,None,0.9201,506.03170143906027,None,0.2588748780544847,,,,,,,DEC019,001,2022_Nov_11_1340,2-25_cond_decay_EYE-try,2021.2.3,120.01439356575331,
left,0.75,1.0,0,0,0,0,0,1,0,1,0,0,1,1,2,,,,,,,,,,,,,,,3s,507.0899721500464,508.0899931769818,508.0817051939666,None,509.08166619297117,511.92334785405546,509.08166619297117,511.92334785405546,511.92334785405546,None,511.92334785405546,None,space,511.92334785405546,None,2.838,512.3650902239606,None,0.31087316293269396,,,,,,,DEC019,001,2022_Nov_11_1340,2-25_cond_decay_EYE-try,2021.2.3,120.01439356575331,
right,1.0,0.75,0,0,0,0,0,1,0,1,0,0,2,2,3,,,,,,,,,,,,,,,3s,513.415033566067,514.4150464050472,514.4067182459403,None,515.4068040640559,517.690153327072,515.4068040640559,517.690153327072,517.6817757340614,None,517.6817757340614,None,space,517.6817757340614,None,2.2774,518.1068251789548,None,0.2941272540483624,,,,,,,DEC019,001,2022_Nov_11_1340,2-25_cond_decay_EYE-try,2021.2.3,120.01439356575331,
left,0.75,1.0,0,0,0,0,0,1,0,1,0,0,3,3,8,,,,,,,,,,,,,,,3s,519.1651781669352,520.1651341940742,520.1568423009012,None,521.1567932560574,521.3734568669461,521.1567932560574,521.3734568669461,521.3734568669461,None,521.3734568669461,None,space,521.3734568669461,None,0.2132,521.9401952200569,None,0.43586089881137013,,,,,,,DEC019,001,2022_Nov_11_1340,2-25_cond_decay_EYE-try,2021.2.3,120.01439356575331,
left,1.0,0.75,1,0,0,0,0,1,0,1,0,0,4,4,1,,,,,,,,,,,,,,,3s,522.9985102319624,523.9984833828639,523.990217075916,None,524.9901838430669,527.0319262349512,524.9901838430669,527.0319262349512,527.0236062828917,None,527.0236062828917,None,space,527.0236062828917,None,2.0372,527.4569195029326,None,0.3005331219173968,,,,,,,DEC019,001,2022_Nov_11_1340,2-25_cond_decay_EYE-try,2021.2.3,120.01439356575331,
right,1.0,0.75,0,0,0,0,0,1,0,1,0,0,5,5,7,,,,,,,,,,,,,,,3s,528.5152846979909,529.5153464919422,529.5068881530315,None,530.5069826438557,533.465266194893,530.5069826438557,533.465266194893,533.465266194893,None,533.465266194893,None,space,533.465266194893,None,2.9573,533.9319841340184,None,0.3358614461030811,,,,,,,DEC019,001,2022_Nov_11_1340,2-25_cond_decay_EYE-try,2021.2.3,120.01439356575331,
left,0.75,1.0,0,0,0,0,0,1,0,1,0,0,6,6,0,,,,,,,,,,,,,,,3s,534.9903493640013,535.9902994309086,535.9820156740025,None,536.9820285830647,539.8819905139972,536.9820285830647,539.8819905139972,539.8819905139972,None,539.8819905139972,None,space,539.8819905139972,None,2.8965,540.2737280300353,None,0.2608581178355962,,,,,,,DEC019,001,2022_Nov_11_1340,2-25_cond_decay_EYE-try,2021.2.3,120.01439356575331,
right,1.0,0.75,0,0,0,0,0,1,0,1,0,0,7,7,6,,,,,,,,,,,,,,,3s,541.3320128489286,542.3320136158727,542.3237554070074,None,543.323772334028,543.5820385608822,543.323772334028,543.5820385608822,543.5820385608822,None,543.5820385608822,None,space,543.5820385608822,None,0.2553,544.1070933870506,None,0.39409032301045954,,,,,,,DEC019,001,2022_Nov_11_1340,2-25_cond_decay_EYE-try,2021.2.3,120.01439356575331,
right,1.0,0.75,0,0,0,0,0,1,0,1,0,0,8,8,4,,,,,,,,,,,,,,,3s,545.1642384838779,546.1653954188805,546.1570824398659,None,547.1571817758959,547.6404191630427,547.1571817758959,547.6404191630427,547.6321378389839,None,547.6321378389839,None,space,547.6321378389839,None,0.4774,548.098855586024,None,0.3356664350721985,,,,,,,DEC019,001,2022_Nov_11_1340,2-25_cond_decay_EYE-try,2021.2.3,120.01439356575331,
left,0.75,1.0,0,0,0,0,0,1,0,1,0,0,9,9,5,,,,,,,,,,,,,,,3s,549.1572571559809,550.1571053960361,550.148843848845,None,551.1487807889935,553.6238132149447,551.1487807889935,553.6238132149447,553.6238132149447,None,553.6238132149447,None,space,553.6238132149447,None,2.4749,554.0572118940763,None,0.3026999600697309,,,,,,,DEC019,001,2022_Nov_11_1340,2-25_cond_decay_EYE-try,2021.2.3,120.01439356575331,
right,0.75,1.0,1,0,0,0,0,1,0,1,0,1,0,10,9,,,,,,,,,,,,,,,3s,555.1155558789615,556.1155772348866,556.1071655270644,None,557.1072496089619,558.16551922285,557.1072496089619,558.16551922285,558.1572786578909,None,558.1572786578909,None,space,558.1572786578909,None,1.0527,558.7155804608483,None,0.4273541239090264,,,,,,,DEC019,001,2022_Nov_11_1340,2-25_cond_decay_EYE-try,2021.2.3,120.01439356575331,
right,1.0,0.75,0,0,0,0,0,1,0,1,0,1,1,11,4,,,,,,,,,,,,,,,3s,559.7725790068507,560.7739822398871,560.7655514408834,None,561.7656300610397,563.3656366178766,561.7656300610397,563.3656366178766,563.3573092010338,None,563.3573092010338,None,space,563.3573092010338,None,1.5939,563.79769368493,None,0.3088639711495489,,,,,,,DEC019,001,2022_Nov_11_1340,2-25_cond_decay_EYE-try,2021.2.3,120.01439356575331,
right,1.0,0.75,0,0,0,0,0,1,0,1,0,1,2,12,7,,,,,,,,,,,,,,,3s,564.8573402639013,565.8573469358962,565.8490026870277,None,566.848949004896,568.9823102820665,566.848949004896,568.9823102820665,568.9823102820665,None,568.9823102820665,None,space,568.9823102820665,None,2.1281,569.40608190489,None,0.29216359509155154,,,,,,,DEC019,001,2022_Nov_11_1340,2-25_cond_decay_EYE-try,2021.2.3,120.01439356575331,
left,1.0,0.75,1,0,0,0,0,1,0,1,0,1,3,13,1,,,,,,,,,,,,,,,3s,570.4657288370654,571.4656874209177,571.4574052819517,None,572.4573566580657,573.6990752748679,572.4573566580657,573.6990752748679,573.6908368528821,574.6908433008939,573.6908368528821,574.6908433008939,None,573.6908368528821,574.6908433008939,1.2353,574.8241033828817,None,,,,,,,,DEC019,001,2022_Nov_11_1340,2-25_cond_decay_EYE-try,2021.2.3,120.01439356575331,
left,0.75,1.0,0,0,0,0,0,1,0,1,0,1,4,14,5,,,,,,,,,,,,,,,3s,575.8824623550754,576.882455698913,576.8741146069951,None,577.8741390658543,578.7074738340452,577.8741390658543,578.7074738340452,578.6991267290432,None,578.6991267290432,None,space,578.6991267290432,None,0.829,579.1658191999886,None,0.3358963509090245,,,,,,,DEC019,001,2022_Nov_11_1340,2-25_cond_decay_EYE-try,2021.2.3,120.01439356575331,
left,0.75,1.0,0,0,0,0,0,1,0,1,0,1,5,15,0,,,,,,,,,,,,,,,3s,580.2240987238474,581.2241709870286,581.2158394639846,None,582.2158575269859,583.3408051589504,582.2158575269859,583.3408051589504,583.3408051589504,None,583.3408051589504,None,space,583.3408051589504,None,1.124,583.8075349258725,None,0.33394328504800797,,,,,,,DEC019,001,2022_Nov_11_1340,2-25_cond_decay_EYE-try,2021.2.3,120.01439356575331,
left,0.75,1.0,0,0,0,0,0,1,0,1,0,1,6,16,2,,,,,,,,,,,,,,,3s,584.8645153429825,585.8658232029993,585.8492201608606,None,586.849237435963,588.5408476749435,586.849237435963,588.5408476749435,588.5408476749435,None,588.5408476749435,None,space,588.5408476749435,None,1.6874,589.1575836979318,None,0.4858425580896437,,,,,,,DEC019,001,2022_Nov_11_1340,2-25_cond_decay_EYE-try,2021.2.3,120.01439356575331,
left,0.75,1.0,0,0,0,0,0,1,0,1,0,1,7,17,8,,,,,,,,,,,,,,,3s,590.2158980090171,591.2159684018698,591.2076177040581,None,592.2076718818862,594.340924880933,592.2076718818862,594.340924880933,594.340924880933,None,594.340924880933,None,space,594.340924880933,None,2.1317,594.7909855449107,None,0.3171740700490773,,,,,,,DEC019,001,2022_Nov_11_1340,2-25_cond_decay_EYE-try,2021.2.3,120.01439356575331,
right,1.0,0.75,0,0,0,0,0,1,0,1,0,1,8,18,6,,,,,,,,,,,,,,,3s,595.8492656119633,596.8493379398715,596.8410242618993,None,597.8409494599327,598.1409773258492,597.8409494599327,598.1409773258492,598.1409773258492,None,598.1409773258492,None,space,598.1409773258492,None,0.298,598.5410212010611,None,0.26905232295393944,,,,,,,DEC019,001,2022_Nov_11_1340,2-25_cond_decay_EYE-try,2021.2.3,120.01439356575331,
right,1.0,0.75,0,0,0,0,0,1,0,1,0,1,9,19,3,,,,,,,,,,,,,,,3s,599.5980119779706,600.5993088770192,600.5826490279287,None,601.5826528018806,603.832775281975,601.5826528018806,603.832775281975,603.832775281975,None,603.832775281975,None,space,603.832775281975,None,2.2483,604.2827517909463,None,0.3191739588510245,,,,,,,DEC019,001,2022_Nov_11_1340,2-25_cond_decay_EYE-try,2021.2.3,120.01439356575331,
,,,,0,0,0,0,1,0,1,0,,,,,,,,,,,,,,,,,,,,,,,,,,,,,,,,,,,,,,,,,,,,,DEC019,001,2022_Nov_11_1340,2-25_cond_decay_EYE-try,2021.2.3,120.01439356575331,
right,1.0,0.75,0,0,0,0,0,2,0,2,0,0,0,0,6,,,,,,,,,605.1744357419666,None,605.1744357419666,None,605.1744357419666,None,5s,606.5077800250147,607.5077816080302,607.4994493110571,None,608.4995221139397,612.4494505899493,608.4995221139397,612.4494505899493,612.4494505899493,None,612.4494505899493,None,space,612.4494505899493,None,3.9509,612.874508641893,None,0.2942243709694594,,,,,,,DEC019,001,2022_Nov_11_1340,2-25_cond_decay_EYE-try,2021.2.3,120.01439356575331,
right,1.0,0.75,0,0,0,0,0,2,0,2,0,0,1,1,8,,,,,,,,,,,,,,,5s,613.9327911869623,614.9328639239538,614.9244739508722,None,615.9244981680531,616.6245193758514,615.9244981680531,616.6245193758514,616.6245193758514,None,616.6245193758514,None,space,616.6245193758514,None,0.6995,617.1162365230266,None,0.36074282601475716,,,,,,,DEC019,001,2022_Nov_11_1340,2-25_cond_decay_EYE-try,2021.2.3,120.01439356575331,
left,1.0,0.75,1,0,0,0,0,2,0,2,0,0,2,2,2,,,,,,,,,,,,,,,5s,618.1745061869733,619.1745008688886,619.1661764159799,None,620.1662113089114,622.9078967708629,620.1662113089114,622.9078967708629,622.8996303188615,None,622.8996303188615,None,space,622.8996303188615,None,2.7395,623.4412807240151,None,0.40879741217941046,,,,,,,DEC019,001,2022_Nov_11_1340,2-25_cond_decay_EYE-try,2021.2.3,120.01439356575331,
left,0.75,1.0,0,0,0,0,0,2,0,2,0,0,3,3,1,,,,,,,,,,,,,,,5s,624.4996488390025,625.4995798340533,625.4913105990272,None,626.4912414960563,631.0163116399199,626.4912414960563,631.0163116399199,631.0079669649713,None,631.0079669649713,None,space,631.0079669649713,None,4.5193,631.5330533869565,None,0.39429951598867774,,,,,,,DEC019,001,2022_Nov_11_1340,2-25_cond_decay_EYE-try,2021.2.3,120.01439356575331,
left,0.75,1.0,0,0,0,0,0,2,0,2,0,0,4,4,9,,,,,,,,,,,,,,,5s,632.5901594168972,633.5913298130035,633.574684221996,None,634.5746814599261,637.9913969079498,634.5746814599261,637.9913969079498,637.9913969079498,None,637.9913969079498,None,space,637.9913969079498,None,3.4177,638.4581143590622,None,0.33590799383819103,,,,,,,DEC019,001,2022_Nov_11_1340,2-25_cond_decay_EYE-try,2021.2.3,120.01439356575331,
right,1.0,0.75,0,0,0,0,0,2,0,2,0,0,5,5,5,,,,,,,,,,,,,,,5s,639.5164648049977,640.5164875539485,640.508090835996,None,641.5081013280433,643.5248451130465,641.5081013280433,643.5248451130465,643.5164530219045,None,643.5164530219045,None,space,643.5164530219045,None,2.0128,644.066516846884,None,0.4192031000275165,,,,,,,DEC019,001,2022_Nov_11_1340,2-25_cond_decay_EYE-try,2021.2.3,120.01439356575331,
right,0.75,1.0,1,0,0,0,0,2,0,2,0,0,6,6,0,,,,,,,,,,,,,,,5s,645.1247947888914,646.1248179508839,646.1165452210698,None,647.1165602160618,651.3665308759082,647.1165602160618,651.3665308759082,651.3665308759082,None,651.3665308759082,None,space,651.3665308759082,None,4.2482,651.8249367540702,None,0.3256663060747087,,,,,,,DEC019,001,2022_Nov_11_1340,2-25_cond_decay_EYE-try,2021.2.3,120.01439356575331,
right,1.0,0.75,0,0,0,0,0,2,0,2,0,0,7,7,3,,,,,,,,,,,,,,,5s,652.874895267887,653.8749051850755,653.8666269339155,None,654.8666396578774,655.5415704809129,654.8666396578774,655.5415704809129,655.5415704809129,None,655.5415704809129,None,space,655.5415704809129,None,0.6759,656.2416505380534,None,0.569037141976878,,,,,,,DEC019,001,2022_Nov_11_1340,2-25_cond_decay_EYE-try,2021.2.3,120.01439356575331,
left,0.75,1.0,0,0,0,0,0,2,0,2,0,0,8,8,7,,,,,,,,,,,,,,,5s,657.299906038912,658.2999367499724,658.2916796258651,None,659.2916120600421,660.3749439099338,659.2916120600421,660.3749439099338,660.3749439099338,None,660.3749439099338,None,None,660.3749439099338,None,1.0828,661.5000229750294,None,,,,,,,,DEC019,001,2022_Nov_11_1340,2-25_cond_decay_EYE-try,2021.2.3,120.01439356575331,
right,1.0,0.75,0,0,0,0,0,2,0,2,0,0,9,9,4,,,,,,,,,,,,,,,5s,662.5583227290772,663.5584024358541,663.5417386619374,None,664.5418110229075,665.5000201549847,664.5418110229075,665.5000201549847,665.5000201549847,None,665.5000201549847,None,None,665.5000201549847,None,0.9558,666.6238122959621,None,,,,,,,,DEC019,001,2022_Nov_11_1340,2-25_cond_decay_EYE-try,2021.2.3,120.01439356575331,
right,1.0,0.75,0,0,0,0,0,2,0,2,0,1,0,10,5,,,,,,,,,,,,,,,5s,667.6834555738606,668.6834626989439,668.6751378830522,None,669.6750757270493,673.7501238218974,669.6750757270493,673.7501238218974,673.7418517479673,None,673.7418517479673,None,space,673.7418517479673,None,4.0712,674.1835160430055,None,0.30885561811737716,,,,,,,DEC019,001,2022_Nov_11_1340,2-25_cond_decay_EYE-try,2021.2.3,120.01439356575331,
right,1.0,0.75,0,0,0,0,0,2,0,2,0,1,1,11,4,,,,,,,,,,,,,,,5s,675.2404918279499,676.2418566208798,676.23355098092,None,677.2335509050172,682.1752523509786,677.2335509050172,682.1752523509786,682.1668665169273,None,682.1668665169273,None,space,682.1668665169273,None,4.9371,682.6252672518604,None,0.32747940509580076,,,,,,,DEC019,001,2022_Nov_11_1340,2-25_cond_decay_EYE-try,2021.2.3,120.01439356575331,
left,0.75,1.0,0,0,0,0,0,2,0,2,0,1,2,12,7,,,,,,,,,,,,,,,5s,683.6836055200547,684.6836640059482,684.6752201449126,None,685.6752976209391,688.5503257999662,685.6752976209391,688.5503257999662,688.5503257999662,None,688.5503257999662,None,space,688.5503257999662,None,2.8729,689.0420036469586,None,0.3607929979916662,,,,,,,DEC019,001,2022_Nov_11_1340,2-25_cond_decay_EYE-try,2021.2.3,120.01439356575331,
right,1.0,0.75,0,0,0,0,0,2,0,2,0,1,3,13,8,,,,,,,,,,,,,,,5s,690.100359085016,691.1002974910662,691.091972569935,None,692.0919645980466,694.5670060240664,692.0919645980466,694.5670060240664,694.5670060240664,None,694.5670060240664,None,space,694.5670060240664,None,2.4759,695.100398811046,None,0.4026721951086074,,,,,,,DEC019,001,2022_Nov_11_1340,2-25_cond_decay_EYE-try,2021.2.3,120.01439356575331,
left,0.75,1.0,0,0,0,0,0,2,0,2,0,1,4,14,1,,,,,,,,,,,,,,,5s,696.1657206139062,697.1670183630195,697.1504817639943,None,698.1504290900193,699.608734251,698.1504290900193,699.608734251,699.6003833869472,700.6003995798528,699.6003833869472,700.6003995798528,None,699.6003833869472,700.6003995798528,1.4513,700.7337959979195,None,,,,,,,,DEC019,001,2022_Nov_11_1340,2-25_cond_decay_EYE-try,2021.2.3,120.01439356575331,
right,1.0,0.75,0,0,0,0,0,2,0,2,0,1,5,15,3,,,,,,,,,,,,,,,5s,701.7921343808994,702.792139837984,702.78380843997,None,703.7837685509585,707.0255281219725,703.7837685509585,707.0255281219725,707.0255281219725,None,707.0255281219725,None,space,707.0255281219725,None,3.239,707.5505421189591,None,0.39215252199210227,,,,,,,DEC019,001,2022_Nov_11_1340,2-25_cond_decay_EYE-try,2021.2.3,120.01439356575331,
left,1.0,0.75,1,0,0,0,0,2,0,2,0,1,6,16,2,,,,,,,,,,,,,,,5s,708.6005629149731,709.6005437739659,709.5922825420275,None,710.5921898700763,710.8339090370573,710.5921898700763,710.8339090370573,710.8255645369645,None,710.8255645369645,None,space,710.8255645369645,None,0.2363,711.3742786189541,None,0.41718954988755286,,,,,,,DEC019,001,2022_Nov_11_1340,2-25_cond_decay_EYE-try,2021.2.3,120.01439356575331,
left,0.75,1.0,0,0,0,0,0,2,0,2,0,1,7,17,9,,,,,,,,,,,,,,,5s,712.4325604960322,713.4338723740075,713.4172887399327,None,714.4172256388701,716.1505731809884,714.4172256388701,716.1505731809884,716.1505731809884,None,716.1505731809884,None,space,716.1505731809884,None,1.7299,716.6339722580742,None,0.35250162496231496,,,,,,,DEC019,001,2022_Nov_11_1340,2-25_cond_decay_EYE-try,2021.2.3,120.01439356575331,
left,0.75,1.0,0,0,0,0,0,2,0,2,0,1,8,18,6,,,,,,,,,,,,,,,5s,717.6839100830257,718.6839197750669,718.6755955009721,None,719.6756640919484,723.9257084438577,719.6756640919484,723.9257084438577,723.9172895359807,None,723.9172895359807,None,space,723.9172895359807,None,4.2455,724.3910846810322,None,0.3427376230247319,,,,,,,DEC019,001,2022_Nov_11_1340,2-25_cond_decay_EYE-try,2021.2.3,120.01439356575331,
right,0.75,1.0,1,0,0,0,0,2,0,2,0,1,9,19,0,,,,,,,,,,,,,,,5s,725.4423339930363,726.4424096690491,726.4340000969823,None,727.4341812769417,727.6673618929926,727.4341812769417,727.6673618929926,727.659125686856,728.6590195009485,727.659125686856,728.6590195009485,None,727.659125686856,728.6590195009485,0.2268,728.7924295458943,None,,,,,,,,DEC019,001,2022_Nov_11_1340,2-25_cond_decay_EYE-try,2021.2.3,120.01439356575331,
,,,,0,0,0,0,2,0,2,0,,,,,,,,,,,,,,,,,,,,,,,,,,,,,,,,,,,,,,,,,,,,,DEC019,001,2022_Nov_11_1340,2-25_cond_decay_EYE-try,2021.2.3,120.01439356575331,
right,0.75,1.0,1,0,0,0,0,3,0,3,0,0,0,0,9,,,,,,,,,729.6841111390386,None,729.6841111390386,None,729.6841111390386,None,10s,731.307828387944,732.309077240061,732.2924577868544,None,733.2924857139587,737.2841358750593,733.2924857139587,737.2841358750593,737.2841358750593,None,737.2841358750593,None,space,737.2841358750593,None,3.9895,737.9162359628826,None,0.49418730614706874,,,,,,,DEC019,001,2022_Nov_11_1340,2-25_cond_decay_EYE-try,2021.2.3,120.01439356575331,
left,0.75,1.0,0,0,0,0,0,3,0,3,0,0,1,1,6,,,,,,,,,,,,,,,10s,738.9675400969572,739.9674754659645,739.9591510479804,None,740.9592083310708,747.7843090458773,740.9592083310708,747.7843090458773,747.7759269399103,None,747.7759269399103,None,space,747.7759269399103,None,6.8179,748.3093183690216,None,0.40260511194355786,,,,,,,DEC019,001,2022_Nov_11_1340,2-25_cond_decay_EYE-try,2021.2.3,120.01439356575331,
left,0.75,1.0,0,0,0,0,0,3,0,3,0,0,2,2,3,,,,,,,,,,,,,,,10s,749.3663084090222,750.3676567568909,750.3509609499015,None,751.350941330893,758.9344298180658,751.350941330893,758.9344298180658,758.9344298180658,None,758.9344298180658,None,space,758.9344298180658,None,7.578,759.3497934269253,None,0.28384441789239645,,,,,,,DEC019,001,2022_Nov_11_1340,2-25_cond_decay_EYE-try,2021.2.3,120.01439356575331,
right,1.0,0.75,0,0,0,0,0,3,0,3,0,0,3,3,4,,,,,,,,,,,,,,,10s,760.4093715869822,761.4094481409993,761.4011127508711,None,762.4010562249459,767.0178369870409,762.4010562249459,767.0178369870409,767.0178369870409,None,767.0178369870409,None,None,767.0178369870409,None,4.6165,768.1428495440632,None,,,,,,,,DEC019,001,2022_Nov_11_1340,2-25_cond_decay_EYE-try,2021.2.3,120.01439356575331,
right,1.0,0.75,0,0,0,0,0,3,0,3,0,0,4,4,7,,,,,,,,,,,,,,,10s,769.1998510018457,770.201212448068,770.1844801369589,None,771.1845012470149,777.8679658370093,771.1845012470149,777.8679658370093,777.8679658370093,None,777.8679658370093,None,space,777.8679658370093,None,6.6787,778.3763006110676,None,0.375522529007867,,,,,,,DEC019,001,2022_Nov_11_1340,2-25_cond_decay_EYE-try,2021.2.3,120.01439356575331,
right,0.75,1.0,1,0,0,0,0,3,0,3,0,0,5,5,1,,,,,,,,,,,,,,,10s,779.4263145569712,780.4262636969797,780.4179744229186,None,781.4179899790324,787.593009985052,781.4179899790324,787.593009985052,787.593009985052,None,787.593009985052,None,space,787.593009985052,None,6.1693,788.0931522690225,None,0.36938428808934987,,,,,,,DEC019,001,2022_Nov_11_1340,2-25_cond_decay_EYE-try,2021.2.3,120.01439356575331,
right,1.0,0.75,0,0,0,0,0,3,0,3,0,0,6,6,2,,,,,,,,,,,,,,,10s,789.1430802808609,790.1430266960524,790.1347252440173,None,791.1347767028492,794.2264220349025,791.1347767028492,794.2264220349025,794.2264220349025,None,794.2264220349025,None,None,794.2264220349025,None,3.0863,795.3514949448872,None,,,,,,,,DEC019,001,2022_Nov_11_1340,2-25_cond_decay_EYE-try,2021.2.3,120.01439356575331,
left,1.0,0.75,1,0,0,0,0,3,0,3,0,0,7,7,5,,,,,,,,,,,,,,,10s,796.409822155023,797.4097707530018,797.4014292890206,None,798.4014408760704,807.1265543838963,798.4014408760704,807.1265543838963,807.1265543838963,None,807.1265543838963,None,space,807.1265543838963,None,8.722,807.6516284940299,None,0.3941880729980767,,,,,,,DEC019,001,2022_Nov_11_1340,2-25_cond_decay_EYE-try,2021.2.3,120.01439356575331,
right,1.0,0.75,0,0,0,0,0,3,0,3,0,0,8,8,0,,,,,,,,,,,,,,,10s,808.709948327858,809.7099011649843,809.7016247708816,None,810.7015822220128,813.1266585008707,810.7015822220128,813.1266585008707,813.1183408328798,None,813.1183408328798,None,space,813.1183408328798,None,2.4204,813.6516759439837,None,0.40246734977699816,,,,,,,DEC019,001,2022_Nov_11_1340,2-25_cond_decay_EYE-try,2021.2.3,120.01439356575331,
left,0.75,1.0,0,0,0,0,0,3,0,3,0,0,9,9,8,,,,,,,,,,,,,,,10s,814.7099509888794,815.709960103035,815.7016937900335,None,816.7016499398742,817.5933286650106,816.7016499398742,817.5933286650106,817.5933286650106,None,817.5933286650106,None,None,817.5933286650106,None,0.8901,818.7183941919357,None,,,,,,,,DEC019,001,2022_Nov_11_1340,2-25_cond_decay_EYE-try,2021.2.3,120.01439356575331,
left,0.75,1.0,0,0,0,0,0,3,0,3,0,1,0,10,9,,,,,,,,,,,,,,,10s,819.7754631259013,820.7767588079441,820.7600963688456,None,821.7600289708935,831.435149010038,821.7600289708935,831.435149010038,831.435149010038,None,831.435149010038,None,space,831.435149010038,None,9.6702,831.8672087560408,None,0.2941634620074183,,,,,,,DEC019,001,2022_Nov_11_1340,2-25_cond_decay_EYE-try,2021.2.3,120.01439356575331,
right,0.75,1.0,1,0,0,0,0,3,0,3,0,1,1,11,1,,,,,,,,,,,,,,,10s,832.9101561659481,833.9101638570428,833.9018441240769,None,834.9018433489837,843.7019558148459,834.9018433489837,843.7019558148459,843.7019558148459,None,843.7019558148459,None,space,843.7019558148459,None,8.7977,844.452006504871,None,0.6193223611917347,,,,,,,DEC019,001,2022_Nov_11_1340,2-25_cond_decay_EYE-try,2021.2.3,120.01439356575331,
right,1.0,0.75,0,0,0,0,0,3,0,3,0,1,2,12,2,,,,,,,,,,,,,,,10s,845.5103534369264,846.5103647650685,846.5020172118675,None,847.5019722599536,857.4270838089287,847.5019722599536,857.4270838089287,857.4187807610724,None,857.4187807610724,None,space,857.4187807610724,None,9.9215,857.925853085937,None,0.3755726180970669,,,,,,,DEC019,001,2022_Nov_11_1340,2-25_cond_decay_EYE-try,2021.2.3,120.01439356575331,
left,1.0,0.75,1,0,0,0,0,3,0,3,0,1,3,13,5,,,,,,,,,,,,,,,10s,858.9854302459862,859.9855177099817,859.9771655530203,None,860.9771856078878,865.8271684399806,860.9771856078878,865.8271684399806,865.8271684399806,None,865.8271684399806,None,None,865.8271684399806,None,4.8475,866.952255059965,None,,,,,,,,DEC019,001,2022_Nov_11_1340,2-25_cond_decay_EYE-try,2021.2.3,120.01439356575331,
left,0.75,1.0,0,0,0,0,0,3,0,3,0,1,4,14,3,,,,,,,,,,,,,,,10s,868.009317232063,869.0105686930474,868.9939256140497,None,869.993896614993,877.9356307620183,869.993896614993,877.9356307620183,877.9356307620183,None,877.9356307620183,None,None,877.9356307620183,None,7.9362,879.0594169278629,None,,,,,,,,DEC019,001,2022_Nov_11_1340,2-25_cond_decay_EYE-try,2021.2.3,120.01439356575331,
right,1.0,0.75,0,0,0,0,0,3,0,3,0,1,5,15,4,,,,,,,,,,,,,,,10s,880.1177182579413,881.1190608369652,881.1106653020252,None,882.110672442941,887.469062424032,882.110672442941,887.469062424032,887.469062424032,None,887.469062424032,None,space,887.469062424032,None,5.3588,887.9928924459964,None,0.38599268603138626,,,,,,,DEC019,001,2022_Nov_11_1340,2-25_cond_decay_EYE-try,2021.2.3,120.01439356575331,
right,1.0,0.75,0,0,0,0,0,3,0,3,0,1,6,16,7,,,,,,,,,,,,,,,10s,889.0357656518463,890.0358397059608,890.0274469610304,None,891.0275201068725,898.4525313370395,891.0275201068725,898.4525313370395,898.4525313370395,None,898.4525313370395,None,None,898.4525313370395,None,7.4213,899.5775868110359,None,,,,,,,,DEC019,001,2022_Nov_11_1340,2-25_cond_decay_EYE-try,2021.2.3,120.01439356575331,
left,0.75,1.0,0,0,0,0,0,3,0,3,0,1,7,17,8,,,,,,,,,,,,,,,10s,900.6359639139846,901.6358874340076,901.6276213428937,None,902.6192739619873,911.5110018779524,902.6192739619873,911.5110018779524,911.5110018779524,912.5110358588863,911.5110018779524,912.5110358588863,None,911.5110018779524,912.5110358588863,8.8881,912.6431193850003,None,,,,,,,,DEC019,001,2022_Nov_11_1340,2-25_cond_decay_EYE-try,2021.2.3,120.01439356575331,
left,0.75,1.0,0,0,0,0,0,3,0,3,0,1,8,18,6,,,,,,,,,,,,,,,10s,913.7027652119286,914.7026915480383,914.6944241910242,None,915.694449022878,920.186150362948,915.694449022878,920.186150362948,920.186150362948,None,920.186150362948,None,None,920.186150362948,None,4.4875,921.3098689499311,None,,,,,,,,DEC019,001,2022_Nov_11_1340,2-25_cond_decay_EYE-try,2021.2.3,120.01439356575331,
right,1.0,0.75,0,0,0,0,0,3,0,3,0,1,9,19,0,,,,,,,,,,,,,,,10s,922.3611175480764,923.3611276950687,923.3528534059878,None,924.3528733148705,930.8529403330758,924.3528733148705,930.8529403330758,930.8529403330758,None,930.8529403330758,None,space,930.8529403330758,None,6.4967,931.4446040920448,None,0.46086326986551285,,,,,,,DEC019,001,2022_Nov_11_1340,2-25_cond_decay_EYE-try,2021.2.3,120.01439356575331,
,,,,0,0,0,0,3,0,3,0,,,,,,,,,,,,,,,,,,,,,,,,,,,,,,,,,,,,,,,,,,,,,DEC019,001,2022_Nov_11_1340,2-25_cond_decay_EYE-try,2021.2.3,120.01439356575331,
,,,,0,0,0,0,,,,,,,,,,,,,,,,,,,,,,,,,,,,,,,,,,,,,,,,,,,932.336279759882,None,932.336279759882,None,932.336279759882,None,DEC019,001,2022_Nov_11_1340,2-25_cond_decay_EYE-try,2021.2.3,120.01439356575331,
left,0.75,1.0,0,1,0,1,0,0,0,0,0,0,0,0,2,,,,,,,,,937.3363359789364,None,937.3363359789364,None,937.3363359789364,None,10s,939.8780591059476,940.8779806338716,940.8696613719221,None,941.869682240067,942.2696561359335,941.869682240067,942.2696561359335,942.2696561359335,None,942.2696561359335,None,space,942.2696561359335,None,0.3971,942.8197340199258,None,0.41914496291428804,,,,,,,DEC019,001,2022_Nov_11_1340,2-25_cond_decay_EYE-try,2021.2.3,120.01439356575331,
right,1.0,0.75,0,1,0,1,0,0,0,0,0,0,1,1,6,,,,,,,,,,,,,,,10s,943.8780773628969,944.8780244779773,944.8696827439126,None,945.8697594269179,950.1614254829474,945.8697594269179,950.1614254829474,950.1614254829474,None,950.1614254829474,None,space,950.1614254829474,None,4.2889,950.6281387200579,None,0.33549284003674984,,,,,,,DEC019,001,2022_Nov_11_1340,2-25_cond_decay_EYE-try,2021.2.3,120.01439356575331,
right,1.0,0.75,0,1,0,1,0,0,0,0,0,0,2,2,5,,,,,,,,,,,,,,,10s,951.6781604760326,952.6781668858603,952.6698428229429,None,953.6697869079653,962.2365372518543,953.6697869079653,962.2365372518543,962.2282226360403,None,962.2282226360403,None,space,962.2282226360403,None,8.5598,962.9866012800485,None,0.6274362378753722,,,,,,,DEC019,001,2022_Nov_11_1340,2-25_cond_decay_EYE-try,2021.2.3,120.01439356575331,
left,0.75,1.0,0,1,0,1,0,0,0,0,0,0,3,3,4,,,,,,,,,,,,,,,10s,964.0436582970433,965.0449591989163,965.028363769874,None,966.0282567548566,972.0283196158707,966.0282567548566,972.0283196158707,972.0200370759703,None,972.0200370759703,None,space,972.0200370759703,None,5.9932,972.6033735140227,None,0.45259350701235235,,,,,,,DEC019,001,2022_Nov_11_1340,2-25_cond_decay_EYE-try,2021.2.3,120.01439356575331,
left,0.75,1.0,0,1,0,1,0,0,0,0,0,0,4,4,7,,,,,,,,,,,,,,,10s,973.6534004630521,974.653399860952,974.6450212709606,None,975.6450156290084,979.6784556370694,975.6450156290084,979.6784556370694,979.6784556370694,None,979.6784556370694,None,space,979.6784556370694,None,4.0332,980.1867973129265,None,0.3774684169329703,,,,,,,DEC019,001,2022_Nov_11_1340,2-25_cond_decay_EYE-try,2021.2.3,120.01439356575331,
right,1.0,0.75,0,1,0,1,0,0,0,0,0,0,5,5,1,,,,,,,,,,,,,,,10s,981.2437952898908,982.245157744037,982.2284207390621,None,983.2284416218754,984.2284419068601,983.2284416218754,984.2284419068601,984.2284419068601,None,984.2284419068601,None,None,984.2284419068601,None,0.9958,985.3535156620201,None,,,,,,,,DEC019,001,2022_Nov_11_1340,2-25_cond_decay_EYE-try,2021.2.3,120.01439356575331,
right,1.0,0.75,0,1,0,1,0,0,0,0,0,0,6,6,0,,,,,,,,,,,,,,,10s,986.4035429409705,987.4034736379981,987.3868068838492,None,988.3868905510753,991.5701965850312,988.3868905510753,991.5701965850312,991.5785855590366,None,991.5785855590366,None,space,991.5785855590366,None,3.184,992.0189607879147,None,0.30241391411982477,,,,,,,DEC019,001,2022_Nov_11_1340,2-25_cond_decay_EYE-try,2021.2.3,120.01439356575331,
left,0.75,1.0,0,1,0,1,0,0,0,0,0,0,7,7,9,,,,,,,,,,,,,,,10s,993.0702120249625,994.0702129548881,994.0536080780439,None,995.0536292809993,1004.995392712066,995.0536292809993,1004.995392712066,1004.995392712066,None,1004.995392712066,None,space,1004.995392712066,None,9.9383,1005.5537395449355,None,0.4272803340572864,,,,,,,DEC019,001,2022_Nov_11_1340,2-25_cond_decay_EYE-try,2021.2.3,120.01439356575331,
left,1.0,0.75,1,1,0,1,0,0,0,0,0,0,8,8,8,,,,,,,,,,,,,,,10s,1006.6107297029812,1007.6120219510049,1007.6038092619274,None,1008.6037683070172,1014.7704340789933,1008.6037683070172,1014.7704340789933,1014.7621091229375,None,1014.7621091229375,None,space,1014.7621091229375,None,6.1603,1015.3955078108702,None,0.5024749778676778,,,,,,,DEC019,001,2022_Nov_11_1340,2-25_cond_decay_EYE-try,2021.2.3,120.01439356575331,
left,0.75,1.0,0,1,0,1,0,0,0,0,0,0,9,9,3,,,,,,,,,,,,,,,10s,1016.4525680078659,1017.4538630149327,1017.4454648820683,None,1018.4454721638467,1026.1122971759178,1018.4454721638467,1026.1122971759178,1026.1039032239933,None,1026.1039032239933,None,space,1026.1039032239933,None,7.6613,1026.3706215419807,None,0.13561285799369216,,,,,,,DEC019,001,2022_Nov_11_1340,2-25_cond_decay_EYE-try,2021.2.3,120.01439356575331,
left,1.0,0.75,1,1,0,1,0,0,0,0,0,1,0,10,8,,,,,,,,,,,,,,,10s,1027.4289653529413,1028.4289846289903,1028.4206815999933,None,1029.420612619957,1031.929021236021,1029.420612619957,1031.929021236021,1031.929021236021,None,1031.929021236021,None,None,1031.929021236021,None,2.5089,1033.0540319378488,None,,,,,,,,DEC019,001,2022_Nov_11_1340,2-25_cond_decay_EYE-try,2021.2.3,120.01439356575331,
left,0.75,1.0,0,1,0,1,0,0,0,0,0,1,1,11,7,,,,,,,,,,,,,,,10s,1034.111095679924,1035.1123373769224,1035.0956661710516,None,1036.095715280855,1036.5624797418714,1036.095715280855,1036.5624797418714,1036.5624797418714,None,1036.5624797418714,None,space,1036.5624797418714,None,0.4674,1036.9944360980298,None,0.2939398209564388,,,,,,,DEC019,001,2022_Nov_11_1340,2-25_cond_decay_EYE-try,2021.2.3,120.01439356575331,
right,1.0,0.75,0,1,0,1,0,0,0,0,0,1,2,12,1,,,,,,,,,,,,,,,10s,1038.0443993110675,1039.0456985018682,1039.0290404029656,None,1040.0290345419198,1040.8041147638578,1040.0290345419198,1040.8041147638578,1040.8041147638578,None,1040.8041147638578,None,None,1040.8041147638578,None,0.773,1041.929134536069,None,,,,,,,,DEC019,001,2022_Nov_11_1340,2-25_cond_decay_EYE-try,2021.2.3,120.01439356575331,
left,0.75,1.0,0,1,0,1,0,0,0,0,0,1,3,13,9,,,,,,,,,,,,,,,10s,1042.9874594190624,1043.9875040920451,1043.9708247398958,None,1044.9707747569773,1052.9375091569964,1044.9707747569773,1052.9375091569964,1052.9375091569964,None,1052.9375091569964,None,space,1052.9375091569964,None,7.9667,1053.837591376854,None,0.7687999461777508,,,,,,,DEC019,001,2022_Nov_11_1340,2-25_cond_decay_EYE-try,2021.2.3,120.01439356575331,
left,0.75,1.0,0,1,0,1,0,0,0,0,0,1,4,14,3,,,,,,,,,,,,,,,10s,1054.88761461596,1055.8875580290332,1055.8793226729613,None,1056.8792284869123,1058.2959121188615,1056.8792284869123,1058.2959121188615,1058.287642119918,1059.2875792400446,1058.287642119918,1059.2875792400446,None,1058.287642119918,1059.2875792400446,1.412,1059.4209798239172,None,,,,,,,,DEC019,001,2022_Nov_11_1340,2-25_cond_decay_EYE-try,2021.2.3,120.01439356575331,
right,1.0,0.75,0,1,0,1,0,0,0,0,0,1,5,15,6,,,,,,,,,,,,,,,10s,1060.4793191039935,1061.4792761919089,1061.4709427510388,None,1062.4710161630064,1070.454375648871,1062.4710161630064,1070.454375648871,1070.446167621063,1071.4461272549815,1070.446167621063,1071.4461272549815,None,1070.446167621063,1071.4461272549815,7.9762,1071.5794461569749,None,,,,,,,,DEC019,001,2022_Nov_11_1340,2-25_cond_decay_EYE-try,2021.2.3,120.01439356575331,
left,0.75,1.0,0,1,0,1,0,0,0,0,0,1,6,16,4,,,,,,,,,,,,,,,10s,1072.6377246200573,1073.6377323588822,1073.629407448927,None,1074.629404668929,1079.8128199940547,1074.629404668929,1079.8128199940547,1079.8128199940547,None,1079.8128199940547,None,None,1079.8128199940547,None,5.184,1080.9365835259669,None,,,,,,,,DEC019,001,2022_Nov_11_1340,2-25_cond_decay_EYE-try,2021.2.3,120.01439356575331,
right,0.75,1.0,1,1,0,1,0,0,0,0,0,1,7,17,2,,,,,,,,,,,,,,,10s,1081.9961670599878,1082.9962393550668,1082.987967215944,None,1083.9878476769663,1093.9129306490067,1083.9878476769663,1093.9129306490067,1093.9129306490067,None,1093.9129306490067,None,None,1093.9129306490067,None,9.9226,1095.036725950893,None,,,,,,,,DEC019,001,2022_Nov_11_1340,2-25_cond_decay_EYE-try,2021.2.3,120.01439356575331,
right,1.0,0.75,0,1,0,1,0,0,0,0,0,1,8,18,0,,,,,,,,,,,,,,,10s,1096.0950046030339,1097.09639357985,1097.0798069289885,None,1098.0796695030294,1098.2463426070753,1098.0796695030294,1098.2463426070753,1098.2463426070753,None,1098.2463426070753,None,None,1098.2463426070753,None,0.1623,1099.3630755778868,None,,,,,,,,DEC019,001,2022_Nov_11_1340,2-25_cond_decay_EYE-try,2021.2.3,120.01439356575331,
right,1.0,0.75,0,1,0,1,0,0,0,0,0,1,9,19,5,,,,,,,,,,,,,,,10s,1100.4214126740117,1101.4214475608896,1101.41309738392,None,1102.413111268077,1104.3880612750072,1102.413111268077,1104.3880612750072,1104.3880612750072,None,1104.3880612750072,None,space,1104.3880612750072,None,1.9728,1105.046463077888,None,0.5255417060106993,,,,,,,DEC019,001,2022_Nov_11_1340,2-25_cond_decay_EYE-try,2021.2.3,120.01439356575331,
,,,,1,0,1,0,0,0,0,0,,,,,,,,,,,,,,,,,,,,,,,,,,,,,,,,,,,,,,,,,,,,,DEC019,001,2022_Nov_11_1340,2-25_cond_decay_EYE-try,2021.2.3,120.01439356575331,
left,1.0,0.75,1,1,0,1,0,1,0,1,0,0,0,0,8,,,,,,,,,1105.9381503700279,None,1105.9381503700279,None,1105.9381503700279,None,5s,1115.2382486690767,1116.2382668340579,1116.2215995888691,None,1117.2215270879678,1121.730002224911,1117.2215270879678,1121.730002224911,1121.730002224911,None,1121.730002224911,None,None,1121.730002224911,None,4.5038,1122.8549873849843,None,,,,,,,,DEC019,001,2022_Nov_11_1340,2-25_cond_decay_EYE-try,2021.2.3,120.01439356575331,
left,0.75,1.0,0,1,0,1,0,1,0,1,0,0,1,1,4,,,,,,,,,,,,,,,5s,1123.9133523120545,1124.9132878789678,1124.9050123989582,None,1125.9050315259956,1127.3966489948798,1125.9050315259956,1127.3966489948798,1127.3883191288915,1128.3883917629719,1127.3883191288915,1128.3883917629719,None,1127.3883191288915,1128.3883917629719,1.4874,1128.520421867026,None,,,,,,,,DEC019,001,2022_Nov_11_1340,2-25_cond_decay_EYE-try,2021.2.3,120.01439356575331,
right,1.0,0.75,0,1,0,1,0,1,0,1,0,0,2,2,1,,,,,,,,,,,,,,,5s,1129.5800038320012,1130.5800082478672,1130.571681617992,None,1131.5717140089255,1134.0467874519527,1131.5717140089255,1134.0467874519527,1134.038406967884,1135.038385615917,1134.038406967884,1135.038385615917,None,1134.038406967884,1135.038385615917,2.4679,1135.1705018889625,None,,,,,,,,DEC019,001,2022_Nov_11_1340,2-25_cond_decay_EYE-try,2021.2.3,120.01439356575331,
left,0.75,1.0,0,1,0,1,0,1,0,1,0,0,3,3,5,,,,,,,,,,,,,,,5s,1136.2301437829155,1137.2301510788966,1137.2218158249743,None,1138.2218322879635,1140.8301259439904,1138.2218322879635,1140.8301259439904,1140.8218539110385,None,1140.8218539110385,None,space,1140.8218539110385,None,2.6018,1141.2969046430662,None,0.3421924468129873,,,,,,,DEC019,001,2022_Nov_11_1340,2-25_cond_decay_EYE-try,2021.2.3,120.01439356575331,
right,1.0,0.75,0,1,0,1,0,1,0,1,0,0,4,4,9,,,,,,,,,,,,,,,5s,1142.3552119010128,1143.3551470229868,1143.3469073530287,None,1144.3468145460356,1146.0969166890718,1144.3468145460356,1146.0969166890718,1146.0969166890718,None,1146.0969166890718,None,None,1146.0969166890718,None,1.7439,1147.2219258870464,None,,,,,,,,DEC019,001,2022_Nov_11_1340,2-25_cond_decay_EYE-try,2021.2.3,120.01439356575331,
left,0.75,1.0,0,1,0,1,0,1,0,1,0,0,5,5,7,,,,,,,,,,,,,,,5s,1148.2802237269934,1149.2802447169088,1149.2718977630138,None,1150.2718840008602,1154.6885981559753,1150.2718840008602,1154.6885981559753,1154.6885981559753,None,1154.6885981559753,None,None,1154.6885981559753,None,4.4176,1155.8123785799835,None,,,,,,,,DEC019,001,2022_Nov_11_1340,2-25_cond_decay_EYE-try,2021.2.3,120.01439356575331,
right,1.0,0.75,0,1,0,1,0,1,0,1,0,0,6,6,2,,,,,,,,,,,,,,,5s,1156.8719717250206,1157.8719597640447,1157.8553022658452,None,1158.8553078379482,1162.3054137169383,1158.8553078379482,1162.3054137169383,1162.3054137169383,None,1162.3054137169383,None,None,1162.3054137169383,None,3.4452,1163.4291260358877,None,,,,,,,,DEC019,001,2022_Nov_11_1340,2-25_cond_decay_EYE-try,2021.2.3,120.01439356575331,
left,1.0,0.75,1,1,0,1,0,1,0,1,0,0,7,7,0,,,,,,,,,,,,,,,5s,1164.487478943076,1165.4887892429251,1165.4720590428915,None,1166.4720751100685,1170.2720986630302,1166.4720751100685,1170.2720986630302,1170.2720986630302,None,1170.2720986630302,None,None,1170.2720986630302,None,3.7985,1171.3888541560154,None,,,,,,,,DEC019,001,2022_Nov_11_1340,2-25_cond_decay_EYE-try,2021.2.3,120.01439356575331,
left,0.75,1.0,0,1,0,1,0,1,0,1,0,0,8,8,6,,,,,,,,,,,,,,,5s,1172.4472012310289,1173.4471973008476,1173.4387962298933,None,1174.4388267630711,1174.5972296809778,1174.4388267630711,1174.5972296809778,1174.5888895799872,None,1174.5888895799872,None,space,1174.5888895799872,None,0.1558,1175.0722184160259,None,0.35050427401438355,,,,,,,DEC019,001,2022_Nov_11_1340,2-25_cond_decay_EYE-try,2021.2.3,120.01439356575331,
right,0.75,1.0,1,1,0,1,0,1,0,1,0,0,9,9,3,,,,,,,,,,,,,,,5s,1176.1305639019702,1177.1305196050089,1177.122244977858,None,1178.122316353023,1183.0723198549822,1178.122316353023,1183.0723198549822,1183.063920958899,None,1183.063920958899,None,space,1183.063920958899,None,4.9435,1183.5806489470415,None,0.3858782830648124,,,,,,,DEC019,001,2022_Nov_11_1340,2-25_cond_decay_EYE-try,2021.2.3,120.01439356575331,
left,0.75,1.0,0,1,0,1,0,1,0,1,0,1,0,10,5,,,,,,,,,,,,,,,5s,1184.6389898620546,1185.638993934961,1185.6306828099769,None,1186.6307753189467,1186.9390404538717,1186.6307753189467,1186.9390404538717,1186.9390404538717,None,1186.9390404538717,None,space,1186.9390404538717,None,0.3082,1187.430681983009,None,0.3587635508738458,,,,,,,DEC019,001,2022_Nov_11_1340,2-25_cond_decay_EYE-try,2021.2.3,120.01439356575331,
left,0.75,1.0,0,1,0,1,0,1,0,1,0,1,1,11,4,,,,,,,,,,,,,,,5s,1188.4806323389057,1189.4807722768746,1189.472378430888,None,1190.4723821780644,1190.6556991129182,1190.4723821780644,1190.6556991129182,1190.6556991129182,None,1190.6556991129182,None,space,1190.6556991129182,None,0.1822,1191.1473965439945,None,0.3607730439398438,,,,,,,DEC019,001,2022_Nov_11_1340,2-25_cond_decay_EYE-try,2021.2.3,120.01439356575331,
right,1.0,0.75,0,1,0,1,0,1,0,1,0,1,2,12,8,,,,,,,,,,,,,,,5s,1192.2057600510307,1193.2057347719092,1193.1974136279896,None,1194.1974199758843,1195.514113008976,1194.1974199758843,1195.514113008976,1195.514113008976,None,1195.514113008976,None,None,1195.514113008976,None,1.3147,1196.6391100019682,None,,,,,,,,DEC019,001,2022_Nov_11_1340,2-25_cond_decay_EYE-try,2021.2.3,120.01439356575331,
right,0.75,1.0,1,1,0,1,0,1,0,1,0,1,3,13,3,,,,,,,,,,,,,,,5s,1197.6973961049225,1198.697487196885,1198.6891491480637,None,1199.6891566710547,1204.072555203922,1199.6891566710547,1204.072555203922,1204.072555203922,None,1204.072555203922,None,None,1204.072555203922,None,4.3833,1205.1962425089441,None,,,,,,,,DEC019,001,2022_Nov_11_1340,2-25_cond_decay_EYE-try,2021.2.3,120.01439356575331,
right,1.0,0.75,0,1,0,1,0,1,0,1,0,1,4,14,9,,,,,,,,,,,,,,,5s,1206.2475827559829,1207.2475879059639,1207.239221968921,None,1208.239254462067,1210.514270371059,1208.239254462067,1210.514270371059,1210.514270371059,None,1210.514270371059,None,None,1210.514270371059,None,2.2685,1211.6392716448754,None,,,,,,,,DEC019,001,2022_Nov_11_1340,2-25_cond_decay_EYE-try,2021.2.3,120.01439356575331,
left,0.75,1.0,0,1,0,1,0,1,0,1,0,1,5,15,7,,,,,,,,,,,,,,,5s,1212.6963330330327,1213.6975602710154,1213.6809732289985,None,1214.6809159799013,1215.3142733999994,1214.6809159799013,1215.3142733999994,1215.305927945068,1216.305925894063,1215.305927945068,1216.305925894063,None,1215.305927945068,1216.305925894063,0.6266,1216.4380272440612,None,,,,,,,,DEC019,001,2022_Nov_11_1340,2-25_cond_decay_EYE-try,2021.2.3,120.01439356575331,
right,1.0,0.75,0,1,0,1,0,1,0,1,0,1,6,16,2,,,,,,,,,,,,,,,5s,1217.4976884128992,1218.4976352818776,1218.4894292110112,None,1219.4893381579313,1223.08931689593,1219.4893381579313,1223.08931689593,1223.08931689593,None,1223.08931689593,None,space,1223.08931689593,None,3.5961,1223.6894018359017,None,0.46947929821908474,,,,,,,DEC019,001,2022_Nov_11_1340,2-25_cond_decay_EYE-try,2021.2.3,120.01439356575331,
right,1.0,0.75,0,1,0,1,0,1,0,1,0,1,7,17,1,,,,,,,,,,,,,,,5s,1224.7393438189756,1225.7393644039985,1225.7311001869384,None,1226.7311849289108,1230.1060975599103,1226.7311849289108,1230.1060975599103,1230.0977991898544,1231.0977555729914,1230.0977991898544,1231.0977555729914,None,1230.0977991898544,1231.0977555729914,3.3708,1231.2311504250392,None,,,,,,,,DEC019,001,2022_Nov_11_1340,2-25_cond_decay_EYE-try,2021.2.3,120.01439356575331,
left,1.0,0.75,1,1,0,1,0,1,0,1,0,1,8,18,0,,,,,,,,,,,,,,,5s,1232.289422777947,1233.2895148789976,1233.2811713928822,None,1234.2811950170435,1235.4228229299188,1234.2811950170435,1235.4228229299188,1235.4228229299188,None,1235.4228229299188,None,space,1235.4228229299188,None,1.1402,1235.954915316077,None,0.39424888510257006,,,,,,,DEC019,001,2022_Nov_11_1340,2-25_cond_decay_EYE-try,2021.2.3,120.01439356575331,
left,0.75,1.0,0,1,0,1,0,1,0,1,0,1,9,19,6,,,,,,,,,,,,,,,5s,1237.004871860845,1238.0061736558564,1237.9895059708506,None,1238.989517827984,1243.80621074792,1238.989517827984,1243.80621074792,1243.80621074792,None,1243.80621074792,None,space,1243.80621074792,None,4.8131,1244.164630440995,None,0.22760530305095017,,,,,,,DEC019,001,2022_Nov_11_1340,2-25_cond_decay_EYE-try,2021.2.3,120.01439356575331,
,,,,1,0,1,0,1,0,1,0,,,,,,,,,,,,,,,,,,,,,,,,,,,,,,,,,,,,,,,,,,,,,DEC019,001,2022_Nov_11_1340,2-25_cond_decay_EYE-try,2021.2.3,120.01439356575331,
right,1.0,0.75,0,1,0,1,0,2,0,2,0,0,0,0,6,,,,,,,,,1245.0563022990245,None,1245.0563022990245,None,1245.0563022990245,None,1s,1248.6480544789229,1249.648031793069,1249.639613501029,None,1250.6396887339652,1251.1813012210187,1250.6396887339652,1251.1813012210187,1251.1730208368972,None,1251.1730208368972,None,space,1251.1730208368972,None,0.5344,1251.5480291249696,None,0.24410158186219633,,,,,,,DEC019,001,2022_Nov_11_1340,2-25_cond_decay_EYE-try,2021.2.3,120.01439356575331,
left,0.75,1.0,0,1,0,1,0,2,0,2,0,0,1,1,1,,,,,,,,,,,,,,,1s,1252.5980514220428,1253.597986657871,1253.5897207490634,None,1254.58967437502,1255.3730758340098,1254.58967437502,1255.3730758340098,1255.3730758340098,None,1255.3730758340098,None,space,1255.3730758340098,None,0.7842,1255.8217871040106,None,0.3171512798871845,,,,,,,DEC019,001,2022_Nov_11_1340,2-25_cond_decay_EYE-try,2021.2.3,120.01439356575331,
left,0.75,1.0,0,1,0,1,0,2,0,2,0,0,2,2,5,,,,,,,,,,,,,,,1s,1256.873019797029,1257.8731097108684,1257.8648577730637,None,1258.8646945480723,1259.8398820860311,1258.8646945480723,1259.8398820860311,1259.8398820860311,None,1259.8398820860311,None,None,1259.8398820860311,None,0.9737,1260.9648100209888,None,,,,,,,,DEC019,001,2022_Nov_11_1340,2-25_cond_decay_EYE-try,2021.2.3,120.01439356575331,
left,1.0,0.75,1,1,0,1,0,2,0,2,0,0,3,3,2,,,,,,,,,,,,,,,1s,1262.0147704458795,1263.0148754199035,1263.0064367149025,None,1264.0064405419398,1264.5899178159889,1264.0064405419398,1264.5899178159889,1264.5899178159889,None,1264.5899178159889,None,space,1264.5899178159889,None,0.5806,1265.0231849919073,None,0.30038545397110283,,,,,,,DEC019,001,2022_Nov_11_1340,2-25_cond_decay_EYE-try,2021.2.3,120.01439356575331,
right,1.0,0.75,0,1,0,1,0,2,0,2,0,0,4,4,4,,,,,,,,,,,,,,,1s,1266.0814625509083,1267.08162294887,1267.0731735569425,None,1268.0732502490282,1268.5482251308858,1268.0732502490282,1268.5482251308858,1268.5482251308858,None,1268.5482251308858,None,space,1268.5482251308858,None,0.4687,1269.1232163899112,None,0.44425923796370625,,,,,,,DEC019,001,2022_Nov_11_1340,2-25_cond_decay_EYE-try,2021.2.3,120.01439356575331,
right,1.0,0.75,0,1,0,1,0,2,0,2,0,0,5,5,9,,,,,,,,,,,,,,,1s,1270.1815669329371,1271.181583955884,1271.1731900130399,None,1272.1732709640637,1272.5648653048556,1272.1732709640637,1272.5648653048556,1272.5648653048556,None,1272.5648653048556,None,None,1272.5648653048556,None,0.3918,1273.6899442400318,None,,,,,,,,DEC019,001,2022_Nov_11_1340,2-25_cond_decay_EYE-try,2021.2.3,120.01439356575331,
left,0.75,1.0,0,1,0,1,0,2,0,2,0,0,6,6,7,,,,,,,,,,,,,,,1s,1274.748287645867,1275.7482327038888,1275.7399003889877,None,1276.739915437065,1277.5399329250213,1276.739915437065,1277.5399329250213,1277.5399329250213,None,1277.5399329250213,None,space,1277.5399329250213,None,0.7979,1278.1399881970137,None,0.46912924898788333,,,,,,,DEC019,001,2022_Nov_11_1340,2-25_cond_decay_EYE-try,2021.2.3,120.01439356575331,
right,0.75,1.0,1,1,0,1,0,2,0,2,0,0,7,7,0,,,,,,,,,,,,,,,1s,1279.198285013903,1280.198291664943,1280.1899513630196,None,1281.1900165090337,1281.7066561728716,1281.1900165090337,1281.7066561728716,1281.6983019888867,None,1281.6983019888867,None,space,1281.6983019888867,None,0.5125,1282.273369753966,None,0.4442660240456462,,,,,,,DEC019,001,2022_Nov_11_1340,2-25_cond_decay_EYE-try,2021.2.3,120.01439356575331,
left,0.75,1.0,0,1,0,1,0,2,0,2,0,0,8,8,3,,,,,,,,,,,,,,,1s,1283.3316357790027,1284.3316671368666,1284.323390014004,None,1285.3234197848942,1285.7733415539842,1285.3234197848942,1285.7733415539842,1285.7733415539842,None,1285.7733415539842,None,None,1285.7733415539842,None,0.4508,1286.8984109959565,None,,,,,,,,DEC019,001,2022_Nov_11_1340,2-25_cond_decay_EYE-try,2021.2.3,120.01439356575331,
right,1.0,0.75,0,1,0,1,0,2,0,2,0,0,9,9,8,,,,,,,,,,,,,,,1s,1287.9555460449774,1288.9568135570735,1288.9400400279555,None,1289.9401161239948,1290.5150699689984,1289.9401161239948,1290.5150699689984,1290.5150699689984,None,1290.5150699689984,None,space,1290.5150699689984,None,0.5745,1291.531801895937,None,0.8857220727950335,,,,,,,DEC019,001,2022_Nov_11_1340,2-25_cond_decay_EYE-try,2021.2.3,120.01439356575331,
left,0.75,1.0,0,1,0,1,0,2,0,2,0,1,0,10,3,,,,,,,,,,,,,,,1s,1292.5900758148637,1293.5901668129954,1293.5817520839628,None,1294.581832292024,1295.156828714069,1294.581832292024,1295.156828714069,1295.156828714069,None,1295.156828714069,None,None,1295.156828714069,None,0.575,1296.2818502010778,None,,,,,,,,DEC019,001,2022_Nov_11_1340,2-25_cond_decay_EYE-try,2021.2.3,120.01439356575331,
right,1.0,0.75,0,1,0,1,0,2,0,2,0,1,1,11,9,,,,,,,,,,,,,,,1s,1297.340129378019,1298.340193592012,1298.331809321884,None,1299.331789884949,1299.9484923179261,1299.331789884949,1299.9484923179261,1299.9484923179261,None,1299.9484923179261,None,space,1299.9484923179261,None,0.6104,1300.106886429945,None,0.027539661154150963,,,,,,,DEC019,001,2022_Nov_11_1340,2-25_cond_decay_EYE-try,2021.2.3,120.01439356575331,
right,1.0,0.75,0,1,0,1,0,2,0,2,0,1,2,12,8,,,,,,,,,,,,,,,1s,1301.156905106036,1302.156855748035,1302.1485603798646,None,1303.148626653012,1303.4486011329573,1303.148626653012,1303.4486011329573,1303.4486011329573,None,1303.4486011329573,None,None,1303.4486011329573,None,0.3003,1304.5736032088753,None,,,,,,,,DEC019,001,2022_Nov_11_1340,2-25_cond_decay_EYE-try,2021.2.3,120.01439356575331,
right,0.75,1.0,1,1,0,1,0,2,0,2,0,1,3,13,0,,,,,,,,,,,,,,,1s,1305.623617009027,1306.6235823549796,1306.615309010027,None,1307.6153081678785,1308.0736457060557,1307.6153081678785,1308.0736457060557,1308.0736457060557,None,1308.0736457060557,None,None,1308.0736457060557,None,0.4576,1309.197365459986,None,,,,,,,,DEC019,001,2022_Nov_11_1340,2-25_cond_decay_EYE-try,2021.2.3,120.01439356575331,
left,0.75,1.0,0,1,0,1,0,2,0,2,0,1,4,14,5,,,,,,,,,,,,,,,1s,1310.256936097052,1311.257015840849,1311.240289279027,None,1312.2402992919087,1313.1569675540086,1312.2402992919087,1313.1569675540086,1313.1569675540086,None,1313.1569675540086,None,space,1313.1569675540086,None,0.9154,1313.8724134019576,None,0.5772301300894469,,,,,,,DEC019,001,2022_Nov_11_1340,2-25_cond_decay_EYE-try,2021.2.3,120.01439356575331,
right,1.0,0.75,0,1,0,1,0,2,0,2,0,1,5,15,4,,,,,,,,,,,,,,,1s,1314.923718763981,1315.923730834853,1315.9153329739347,None,1316.915455115959,1317.2820957598742,1316.915455115959,1317.2820957598742,1317.273676685989,None,1317.273676685989,None,space,1317.273676685989,None,0.3608,1317.757081402,None,0.35260202502831817,,,,,,,DEC019,001,2022_Nov_11_1340,2-25_cond_decay_EYE-try,2021.2.3,120.01439356575331,
left,1.0,0.75,1,1,0,1,0,2,0,2,0,1,6,16,2,,,,,,,,,,,,,,,1s,1318.8153409878723,1319.8153956369497,1319.8071994900238,None,1320.8070406280458,1320.982056512963,1320.8070406280458,1320.982056512963,1320.982056512963,None,1320.982056512963,None,space,1320.982056512963,None,0.1736,1321.4058242340107,None,0.29218359803780913,,,,,,,DEC019,001,2022_Nov_11_1340,2-25_cond_decay_EYE-try,2021.2.3,120.01439356575331,
left,0.75,1.0,0,1,0,1,0,2,0,2,0,1,7,17,1,,,,,,,,,,,,,,,1s,1322.4654597300105,1323.4654750800692,1323.4570736829191,None,1324.457107817987,1325.0737751149572,1324.457107817987,1325.0737751149572,1325.0654439830687,None,1325.0654439830687,None,space,1325.0654439830687,None,0.6145,1325.4654950238764,None,0.26912736403755844,,,,,,,DEC019,001,2022_Nov_11_1340,2-25_cond_decay_EYE-try,2021.2.3,120.01439356575331,
right,1.0,0.75,0,1,0,1,0,2,0,2,0,1,8,18,6,,,,,,,,,,,,,,,1s,1326.5237800639588,1327.5238596459385,1327.5155190508813,None,1328.5155269568786,1329.2904845699668,1328.5155269568786,1329.2904845699668,1329.2904845699668,None,1329.2904845699668,None,space,1329.2904845699668,None,0.7722,1329.6738657020032,None,0.25252113910391927,,,,,,,DEC019,001,2022_Nov_11_1340,2-25_cond_decay_EYE-try,2021.2.3,120.01439356575331,
left,0.75,1.0,0,1,0,1,0,2,0,2,0,1,9,19,7,,,,,,,,,,,,,,,1s,1330.7308589648455,1331.7322274460457,1331.7155627920292,None,1332.7155151800252,1333.3488637870178,1332.7155151800252,1333.3488637870178,1333.3488637870178,None,1333.3488637870178,None,space,1333.3488637870178,None,0.6315,1333.7809533129912,None,0.3004995009396225,,,,,,,DEC019,001,2022_Nov_11_1340,2-25_cond_decay_EYE-try,2021.2.3,120.01439356575331,
,,,,1,0,1,0,2,0,2,0,,,,,,,,,,,,,,,,,,,,,,,,,,,,,,,,,,,,,,,,,,,,,DEC019,001,2022_Nov_11_1340,2-25_cond_decay_EYE-try,2021.2.3,120.01439356575331,
left,1.0,0.75,1,1,0,1,0,3,0,3,0,0,0,0,8,,,,,,,,,1334.6739219010342,None,1334.6739219010342,None,1334.6739219010342,None,3s,1336.4906143809203,1337.490568330977,1337.4738878719509,None,1338.4739071498625,1338.8322444760706,1338.4739071498625,1338.8322444760706,1338.8406243619975,None,1338.8406243619975,None,space,1338.8406243619975,None,0.3592,1339.2656539499294,None,0.29418931412510574,,,,,,,DEC019,001,2022_Nov_11_1340,2-25_cond_decay_EYE-try,2021.2.3,120.01439356575331,
left,0.75,1.0,0,1,0,1,0,3,0,3,0,0,1,1,6,,,,,,,,,,,,,,,3s,1340.315601950977,1341.3156074469443,1341.307259393856,None,1342.3072825639974,1342.857356556924,1342.3072825639974,1342.857356556924,1342.8490112219006,None,1342.8490112219006,None,space,1342.8490112219006,None,0.544,1343.174017042853,None,0.1921677109785378,,,,,,,DEC019,001,2022_Nov_11_1340,2-25_cond_decay_EYE-try,2021.2.3,120.01439356575331,
right,1.0,0.75,0,1,0,1,0,3,0,3,0,0,2,2,0,,,,,,,,,,,,,,,3s,1344.2323738799896,1345.2323696268722,1345.224030737998,None,1346.2240171639714,1349.1574275828898,1346.2240171639714,1349.1574275828898,1349.1574275828898,None,1349.1574275828898,None,space,1349.1574275828898,None,2.9309,1349.6227907079738,None,0.33385642315261066,,,,,,,DEC019,001,2022_Nov_11_1340,2-25_cond_decay_EYE-try,2021.2.3,120.01439356575331,
left,0.75,1.0,0,1,0,1,0,3,0,3,0,0,3,3,2,,,,,,,,,,,,,,,3s,1350.682388474932,1351.6824405929074,1351.6740606839303,None,1352.6741440598853,1353.4323938349262,1352.6741440598853,1353.4323938349262,1353.4323938349262,None,1353.4323938349262,None,space,1353.4323938349262,None,0.7544,1353.9407995620277,None,0.3774992779362947,,,,,,,DEC019,001,2022_Nov_11_1340,2-25_cond_decay_EYE-try,2021.2.3,120.01439356575331,
right,0.75,1.0,1,1,0,1,0,3,0,3,0,0,4,4,7,,,,,,,,,,,,,,,3s,1354.9991432079114,1355.999093489023,1355.9908517610747,None,1356.9907871310133,1358.4658113149926,1356.9907871310133,1358.4658113149926,1358.4658113149926,None,1358.4658113149926,None,space,1358.4658113149926,None,1.472,1359.1242096219212,None,0.5275194321293384,,,,,,,DEC019,001,2022_Nov_11_1340,2-25_cond_decay_EYE-try,2021.2.3,120.01439356575331,
left,1.0,0.75,1,1,0,1,0,3,0,3,0,0,5,5,5,,,,,,,,,,,,,,,3s,1360.1824750199448,1361.1825483909342,1361.1658130399883,None,1362.1658264759462,1365.0992047600448,1362.1658264759462,1365.0992047600448,1365.0992047600448,None,1365.0992047600448,None,None,1365.0992047600448,None,2.928,1366.2242710089777,None,,,,,,,,DEC019,001,2022_Nov_11_1340,2-25_cond_decay_EYE-try,2021.2.3,120.01439356575331,
left,0.75,1.0,0,1,0,1,0,3,0,3,0,0,6,6,4,,,,,,,,,,,,,,,3s,1367.282691956032,1368.2826923970133,1368.2742810628843,None,1369.2743052928708,1371.7492754629347,1369.2743052928708,1371.7492754629347,1371.7492754629347,None,1371.7492754629347,None,space,1371.7492754629347,None,2.4751,1372.2813758519478,None,0.3940891078673303,,,,,,,DEC019,001,2022_Nov_11_1340,2-25_cond_decay_EYE-try,2021.2.3,120.01439356575331,
right,1.0,0.75,0,1,0,1,0,3,0,3,0,0,7,7,9,,,,,,,,,,,,,,,3s,1373.3326334720477,1374.3326225189958,1374.3243513498455,None,1375.324305232847,1377.615988590056,1375.324305232847,1377.615988590056,1377.615988590056,None,1377.615988590056,None,space,1377.615988590056,None,2.2899,1378.1077301069163,None,0.3606820658314973,,,,,,,DEC019,001,2022_Nov_11_1340,2-25_cond_decay_EYE-try,2021.2.3,120.01439356575331,
right,1.0,0.75,0,1,0,1,0,3,0,3,0,0,8,8,1,,,,,,,,,,,,,,,3s,1379.1577405340504,1380.157748014899,1380.1410185690038,None,1381.1493764270563,1381.957791564986,1381.1493764270563,1381.957791564986,1381.9493691029493,None,1381.9493691029493,None,None,1381.9493691029493,None,0.8059,1383.0744486919139,None,,,,,,,,DEC019,001,2022_Nov_11_1340,2-25_cond_decay_EYE-try,2021.2.3,120.01439356575331,
left,0.75,1.0,0,1,0,1,0,3,0,3,0,0,9,9,3,,,,,,,,,,,,,,,3s,1384.1327216720674,1385.1327326388564,1385.124505172018,None,1386.1245050870348,1386.6910949659068,1386.1245050870348,1386.6910949659068,1386.6910949659068,None,1386.6910949659068,None,space,1386.6910949659068,None,0.5655,1387.1661547629628,None,0.3422323891427368,,,,,,,DEC019,001,2022_Nov_11_1340,2-25_cond_decay_EYE-try,2021.2.3,120.01439356575331,
right,0.75,1.0,1,1,0,1,0,3,0,3,0,1,0,10,7,,,,,,,,,,,,,,,3s,1388.22448653006,1389.2244372239802,1389.216124275932,None,1390.2161159368698,1392.3328087909613,1390.2161159368698,1392.3328087909613,1392.324557790067,1393.3245592289604,1392.324557790067,1393.3245592289604,None,1392.324557790067,1393.3245592289604,2.1103,1393.457891219994,None,,,,,,,,DEC019,001,2022_Nov_11_1340,2-25_cond_decay_EYE-try,2021.2.3,120.01439356575331,
right,1.0,0.75,0,1,0,1,0,3,0,3,0,1,1,11,9,,,,,,,,,,,,,,,3s,1394.514937001979,1395.5163024109788,1395.5079221660271,None,1396.5078592079226,1398.04134148499,1396.5078592079226,1398.04134148499,1398.0328848520294,1399.0329684850294,1398.0328848520294,1399.0329684850294,None,1398.0328848520294,1399.0329684850294,1.5301,1399.164988595061,None,,,,,,,,DEC019,001,2022_Nov_11_1340,2-25_cond_decay_EYE-try,2021.2.3,120.01439356575331,
left,0.75,1.0,0,1,0,1,0,3,0,3,0,1,2,12,2,,,,,,,,,,,,,,,3s,1400.2246494069695,1401.2245760229416,1401.2162814629264,None,1402.216270413017,1403.0663221080322,1402.216270413017,1403.0663221080322,1403.057980149053,1404.0580036879983,1403.057980149053,1404.0580036879983,None,1403.057980149053,1404.0580036879983,0.8448,1404.1830158769153,None,,,,,,,,DEC019,001,2022_Nov_11_1340,2-25_cond_decay_EYE-try,2021.2.3,120.01439356575331,
right,1.0,0.75,0,1,0,1,0,3,0,3,0,1,3,13,0,,,,,,,,,,,,,,,3s,1405.2483268899377,1406.2496496469248,1406.232981591951,None,1407.2329756498802,1408.6914040190168,1407.2329756498802,1408.6914040190168,1408.6914040190168,None,1408.6914040190168,None,None,1408.6914040190168,None,1.4565,1409.816400961019,None,,,,,,,,DEC019,001,2022_Nov_11_1340,2-25_cond_decay_EYE-try,2021.2.3,120.01439356575331,
left,1.0,0.75,1,1,0,1,0,3,0,3,0,1,4,14,5,,,,,,,,,,,,,,,3s,1410.8746980768628,1411.8746933138464,1411.8580368859693,None,1412.8580550609622,1415.183064871002,1412.8580550609622,1415.183064871002,1415.183064871002,None,1415.183064871002,None,None,1415.183064871002,None,2.3234,1416.3068328830414,None,,,,,,,,DEC019,001,2022_Nov_11_1340,2-25_cond_decay_EYE-try,2021.2.3,120.01439356575331,
left,0.75,1.0,0,1,0,1,0,3,0,3,0,1,5,15,4,,,,,,,,,,,,,,,3s,1417.3664126058575,1418.3665626209695,1418.3581060939468,None,1419.3580832039006,1420.3665101218503,1419.3580832039006,1420.3665101218503,1420.358118895907,1421.3581439040136,1420.358118895907,1421.3581439040136,None,1420.358118895907,1421.3581439040136,1.0016,1421.4902277619112,None,,,,,,,,DEC019,001,2022_Nov_11_1340,2-25_cond_decay_EYE-try,2021.2.3,120.01439356575331,
right,1.0,0.75,0,1,0,1,0,3,0,3,0,1,6,16,8,,,,,,,,,,,,,,,3s,1422.5498860138468,1423.5498304308858,1423.5415017448831,None,1424.5415126800071,1426.8499813179951,1424.5415126800071,1426.8499813179951,1426.8499813179951,None,1426.8499813179951,None,None,1426.8499813179951,None,2.308,1427.9749247289728,None,,,,,,,,DEC019,001,2022_Nov_11_1340,2-25_cond_decay_EYE-try,2021.2.3,120.01439356575331,
left,0.75,1.0,0,1,0,1,0,3,0,3,0,1,7,17,3,,,,,,,,,,,,,,,3s,1429.0332827509847,1430.033340228023,1430.0250251670368,None,1431.0248936479911,1431.7833056440577,1431.0248936479911,1431.7833056440577,1431.7749655579682,1432.774987983983,1431.7749655579682,1432.774987983983,None,1431.7749655579682,1432.774987983983,0.7568,1432.9083125388715,None,,,,,,,,DEC019,001,2022_Nov_11_1340,2-25_cond_decay_EYE-try,2021.2.3,120.01439356575331,
right,1.0,0.75,0,1,0,1,0,3,0,3,0,1,8,18,1,,,,,,,,,,,,,,,3s,1433.9665862210095,1434.9665947540198,1434.9583087339997,None,1435.958296352066,1437.2583601989318,1435.958296352066,1437.2583601989318,1437.2499655550346,None,1437.2499655550346,None,None,1437.2499655550346,None,1.2927,1438.3737411638722,None,,,,,,,,DEC019,001,2022_Nov_11_1340,2-25_cond_decay_EYE-try,2021.2.3,120.01439356575331,
left,0.75,1.0,0,1,0,1,0,3,0,3,0,1,9,19,6,,,,,,,,,,,,,,,3s,1439.4333164200652,1440.433417045977,1440.4166610960383,1443.3584348349832,1441.416792765027,1442.3667775529902,1441.416792765027,1442.3667775529902,1442.3667775529902,None,1442.3667775529902,None,None,1442.3667775529902,None,0.9426,1443.4917555958964,None,,,,,,,,DEC019,001,2022_Nov_11_1340,2-25_cond_decay_EYE-try,2021.2.3,120.01439356575331,
,,,,1,0,1,0,3,0,3,0,,,,,,,,,,,,,,,,,,,,,,,,,,,,,,,,,,,,,,,,,,,,,DEC019,001,2022_Nov_11_1340,2-25_cond_decay_EYE-try,2021.2.3,120.01439356575331,
,,,,1,0,1,0,,,,,,,,,,,,,,,,,,,,,,,,,,,,,,,,,,,,,,,,,,,1444.3834295698907,None,1444.3834295698907,None,1444.3834295698907,None,DEC019,001,2022_Nov_11_1340,2-25_cond_decay_EYE-try,2021.2.3,120.01439356575331,
right,0.75,1.0,1,2,0,2,0,0,0,0,0,0,0,0,9,,,,,,,,,1449.3834841179196,None,1449.3834841179196,None,1449.3834841179196,None,3s,1459.7156649190001,1460.7168805429246,1460.7002249469515,None,1461.7002285479102,1462.583566453075,1461.7002285479102,1462.583566453075,1462.583566453075,None,1462.583566453075,None,space,1462.583566453075,None,0.8789,1463.0586332948878,None,0.33579067001119256,,,,,,,DEC019,001,2022_Nov_11_1340,2-25_cond_decay_EYE-try,2021.2.3,120.01439356575331,
right,1.0,0.75,0,2,0,2,0,0,0,0,0,0,1,1,2,,,,,,,,,,,,,,,3s,1464.107287812978,1465.1085830079392,1465.100267014932,None,1466.1003497960046,1467.3086842140183,1466.1003497960046,1467.3086842140183,1467.3003677760717,None,1467.3003677760717,None,space,1467.3003677760717,None,1.2077,1467.9336877649184,None,0.5024896231479943,,,,,,,DEC019,001,2022_Nov_11_1340,2-25_cond_decay_EYE-try,2021.2.3,120.01439356575331,
left,0.75,1.0,0,2,0,2,0,0,0,0,0,0,2,2,4,,,,,,,,,,,,,,,3s,1468.9920222749934,1469.9920438220724,1469.9837177179288,None,1470.9837278700434,1471.56706428295,1470.9837278700434,1471.56706428295,1471.56706428295,None,1471.56706428295,None,None,1471.56706428295,None,0.5807,1472.6920759428758,None,,,,,,,,DEC019,001,2022_Nov_11_1340,2-25_cond_decay_EYE-try,2021.2.3,120.01439356575331,
right,0.75,1.0,1,2,0,2,0,0,0,0,0,0,3,3,7,,,,,,,,,,,,,,,3s,1473.7503732040059,1474.7504519049544,1474.7421010618564,None,1475.7420494619291,1476.550387684023,1475.7420494619291,1476.550387684023,1476.550387684023,None,1476.550387684023,None,None,1476.550387684023,None,0.807,1477.674161406001,None,,,,,,,,DEC019,001,2022_Nov_11_1340,2-25_cond_decay_EYE-try,2021.2.3,120.01439356575331,
left,0.75,1.0,0,2,0,2,0,0,0,0,0,0,4,4,5,,,,,,,,,,,,,,,3s,1478.733811999904,1479.7338206779677,1479.7170996610075,None,1480.717163125053,1483.7004548569676,1480.717163125053,1483.7004548569676,1483.7004548569676,None,1483.7004548569676,None,space,1483.7004548569676,None,2.9806,1484.1838717479259,None,0.3505415259860456,,,,,,,DEC019,001,2022_Nov_11_1340,2-25_cond_decay_EYE-try,2021.2.3,120.01439356575331,
left,0.75,1.0,0,2,0,2,0,0,0,0,0,0,5,5,8,,,,,,,,,,,,,,,3s,1485.2422095020302,1486.2422192010563,1486.233887001872,None,1487.2338271369226,1488.9172190760728,1487.2338271369226,1488.9172190760728,1488.9088504309766,1489.908888279926,1488.9088504309766,1489.908888279926,None,1488.9088504309766,1489.908888279926,1.6803,1490.0422508490738,None,,,,,,,,DEC019,001,2022_Nov_11_1340,2-25_cond_decay_EYE-try,2021.2.3,120.01439356575331,
right,1.0,0.75,0,2,0,2,0,0,0,0,0,0,6,6,3,,,,,,,,,,,,,,,3s,1491.1005322989076,1492.1006065448746,1492.092238391051,None,1493.0922126378864,1495.5006502869073,1493.0922126378864,1495.5006502869073,1495.4923287599813,1496.4922547170427,1495.4923287599813,1496.4922547170427,None,1495.4923287599813,1496.4922547170427,2.4055,1496.6243749358691,None,,,,,,,,DEC019,001,2022_Nov_11_1340,2-25_cond_decay_EYE-try,2021.2.3,120.01439356575331,
left,1.0,0.75,1,2,0,2,0,0,0,0,0,0,7,7,6,,,,,,,,,,,,,,,3s,1497.6839573478792,1498.68408820685,1498.6756854860578,None,1499.6756247070152,1502.0423943819478,1499.6756247070152,1502.0423943819478,1502.0423943819478,None,1502.0423943819478,None,space,1502.0423943819478,None,2.3641,1502.8840751340613,None,0.7108561019413173,,,,,,,DEC019,001,2022_Nov_11_1340,2-25_cond_decay_EYE-try,2021.2.3,120.01439356575331,
right,1.0,0.75,0,2,0,2,0,0,0,0,0,0,8,8,1,,,,,,,,,,,,,,,3s,1503.942407433875,1504.9423605920747,1504.934021557914,None,1505.9340570769273,1508.4507252948824,1505.9340570769273,1508.4507252948824,1508.4507252948824,None,1508.4507252948824,None,space,1508.4507252948824,None,2.5175,1508.8007867129054,None,0.21726624900475144,,,,,,,DEC019,001,2022_Nov_11_1340,2-25_cond_decay_EYE-try,2021.2.3,120.01439356575331,
left,0.75,1.0,0,2,0,2,0,0,0,0,0,0,9,9,0,,,,,,,,,,,,,,,3s,1509.859064596938,1510.8590625040233,1510.8507432548795,None,1511.8508208058774,1513.584128079936,1511.8508208058774,1513.584128079936,1513.575855460018,None,1513.575855460018,None,space,1513.575855460018,None,1.7271,1513.8925059570465,None,0.18549593607895076,,,,,,,DEC019,001,2022_Nov_11_1340,2-25_cond_decay_EYE-try,2021.2.3,120.01439356575331,
right,1.0,0.75,0,2,0,2,0,0,0,0,0,1,0,10,3,,,,,,,,,,,,,,,3s,1514.9425262110308,1515.9425402509514,1515.9341399869882,None,1516.9341594469734,1519.07596034999,1516.9341594469734,1519.07596034999,1519.0675614860374,1520.0675840459298,1519.0675614860374,1520.0675840459298,None,1519.0675614860374,1520.0675840459298,2.1403,1520.2009252619464,None,,,,,,,,DEC019,001,2022_Nov_11_1340,2-25_cond_decay_EYE-try,2021.2.3,120.01439356575331,
left,0.75,1.0,0,2,0,2,0,0,0,0,0,1,1,11,0,,,,,,,,,,,,,,,3s,1521.2592650619335,1522.259260918945,1522.2426057590637,None,1523.2426151689142,1525.6759107608814,1523.2426151689142,1525.6759107608814,1525.6759107608814,None,1525.6759107608814,None,None,1525.6759107608814,None,2.4316,1526.7996935080737,None,,,,,,,,DEC019,001,2022_Nov_11_1340,2-25_cond_decay_EYE-try,2021.2.3,120.01439356575331,
left,0.75,1.0,0,2,0,2,0,0,0,0,0,1,2,12,4,,,,,,,,,,,,,,,3s,1527.8509899480268,1528.8509431958664,1528.8343505968805,None,1529.834366908064,1530.9426337589975,1529.834366908064,1530.9426337589975,1530.9426337589975,None,1530.9426337589975,None,None,1530.9426337589975,None,1.1053,1532.066470918944,None,,,,,,,,DEC019,001,2022_Nov_11_1340,2-25_cond_decay_EYE-try,2021.2.3,120.01439356575331,
right,1.0,0.75,0,2,0,2,0,0,0,0,0,1,3,13,9,,,,,,,,,,,,,,,3s,1533.1247677379288,1534.1259969819803,1534.109412795864,None,1535.109430653043,1536.9760885830037,1535.109430653043,1536.9760885830037,1536.9760885830037,None,1536.9760885830037,None,None,1536.9760885830037,None,1.8644,1538.0999039700255,None,,,,,,,,DEC019,001,2022_Nov_11_1340,2-25_cond_decay_EYE-try,2021.2.3,120.01439356575331,
left,1.0,0.75,1,2,0,2,0,0,0,0,0,1,4,14,6,,,,,,,,,,,,,,,3s,1539.159449037863,1540.1593900169246,1540.15107239387,None,1541.1510886170436,1542.0095404088497,1541.1510886170436,1542.0095404088497,1542.0095404088497,None,1542.0095404088497,None,None,1542.0095404088497,None,0.8544,1543.1261571829673,None,,,,,,,,DEC019,001,2022_Nov_11_1340,2-25_cond_decay_EYE-try,2021.2.3,120.01439356575331,
left,0.75,1.0,0,2,0,2,0,0,0,0,0,1,5,15,5,,,,,,,,,,,,,,,3s,1544.1927692738827,1545.1928384129424,1545.1845340060536,None,1546.184471722925,1548.7595220708754,1546.184471722925,1548.7595220708754,1548.7512244088575,1549.7512333090417,1548.7512244088575,1549.7512333090417,None,1548.7512244088575,1549.7512333090417,2.5708,1549.8832339888904,None,,,,,,,,DEC019,001,2022_Nov_11_1340,2-25_cond_decay_EYE-try,2021.2.3,120.01439356575331,
left,0.75,1.0,0,2,0,2,0,0,0,0,0,1,6,16,8,,,,,,,,,,,,,,,3s,1550.9415490219835,1551.9428725109901,1551.9261900319252,None,1552.9261984298937,1554.4762360369787,1552.9261984298937,1554.4762360369787,1554.4762360369787,None,1554.4762360369787,None,None,1554.4762360369787,None,1.5432,1555.5929618359078,None,,,,,,,,DEC019,001,2022_Nov_11_1340,2-25_cond_decay_EYE-try,2021.2.3,120.01439356575331,
right,1.0,0.75,0,2,0,2,0,0,0,0,0,1,7,17,2,,,,,,,,,,,,,,,3s,1556.6595792949665,1557.6595953600481,1557.6512618199922,None,1558.6512608849443,1561.0596776660532,1558.6512608849443,1561.0596776660532,1561.0596776660532,None,1561.0596776660532,None,None,1561.0596776660532,None,2.4088,1562.1833978169598,None,,,,,,,,DEC019,001,2022_Nov_11_1340,2-25_cond_decay_EYE-try,2021.2.3,120.01439356575331,
right,1.0,0.75,0,2,0,2,0,0,0,0,0,1,8,18,1,,,,,,,,,,,,,,,3s,1563.243114136858,1564.2430546609685,1564.2347226699349,None,1565.2346890659537,1567.2431046930142,1565.2346890659537,1567.2431046930142,1567.2431046930142,None,1567.2431046930142,None,None,1567.2431046930142,None,2.0053,1568.3668000348844,None,,,,,,,,DEC019,001,2022_Nov_11_1340,2-25_cond_decay_EYE-try,2021.2.3,120.01439356575331,
right,0.75,1.0,1,2,0,2,0,0,0,0,0,1,9,19,7,,,,,,,,,,,,,,,3s,1569.418109729886,1570.4180705039762,1570.4097375180572,None,1571.4098112538923,1573.9431033050641,1571.4098112538923,1573.9431033050641,1573.9431033050641,None,1573.9431033050641,None,None,1573.9431033050641,None,2.5281,1575.066872946918,None,,,,,,,,DEC019,001,2022_Nov_11_1340,2-25_cond_decay_EYE-try,2021.2.3,120.01439356575331,
,,,,2,0,2,0,0,0,0,0,,,,,,,,,,,,,,,,,,,,,,,,,,,,,,,,,,,,,,,,,,,,,DEC019,001,2022_Nov_11_1340,2-25_cond_decay_EYE-try,2021.2.3,120.01439356575331,
right,1.0,0.75,0,2,0,2,0,1,0,1,0,0,0,0,7,,,,,,,,,1575.9598472989164,None,1575.9598472989164,None,1575.9598472989164,None,1s,1584.6765506640077,1585.6765899818856,1585.6682106899098,None,1586.668221923057,1587.6516410559416,1586.668221923057,1587.6516410559416,1587.6516410559416,None,1587.6516410559416,None,None,1587.6516410559416,None,0.981,1588.7766476238612,None,,,,,,,,DEC019,001,2022_Nov_11_1340,2-25_cond_decay_EYE-try,2021.2.3,120.01439356575331,
left,0.75,1.0,0,2,0,2,0,1,0,1,0,0,1,1,1,,,,,,,,,,,,,,,1s,1589.8350090789609,1590.8349390069488,1590.8265993408859,None,1591.8266777689569,1592.0516263169702,1591.8266777689569,1592.0516263169702,1592.0516263169702,None,1592.0516263169702,None,None,1592.0516263169702,None,0.2258,1593.168369590072,None,,,,,,,,DEC019,001,2022_Nov_11_1340,2-25_cond_decay_EYE-try,2021.2.3,120.01439356575331,
left,1.0,0.75,1,2,0,2,0,1,0,1,0,0,2,2,2,,,,,,,,,,,,,,,1s,1594.226655581966,1595.226718259044,1595.2183235879056,None,1596.2183289639652,1596.9017397619318,1596.2183289639652,1596.9017397619318,1596.9017397619318,None,1596.9017397619318,None,None,1596.9017397619318,None,0.681,1598.0184132009745,None,,,,,,,,DEC019,001,2022_Nov_11_1340,2-25_cond_decay_EYE-try,2021.2.3,120.01439356575331,
right,1.0,0.75,0,2,0,2,0,1,0,1,0,0,3,3,8,,,,,,,,,,,,,,,1s,1599.0850199100096,1600.0850147129968,1600.0767755110282,None,1601.0767147140577,1601.4517978238873,1601.0767147140577,1601.4517978238873,1601.4517978238873,None,1601.4517978238873,None,space,1601.4517978238873,None,0.3682,1601.793458489934,None,0.21037320513278246,,,,,,,DEC019,001,2022_Nov_11_1340,2-25_cond_decay_EYE-try,2021.2.3,120.01439356575331,
right,1.0,0.75,0,2,0,2,0,1,0,1,0,0,4,4,6,,,,,,,,,,,,,,,1s,1602.8518039630726,1603.8517515768763,1603.843476939015,None,1604.8434207530227,1605.1101615289226,1604.8434207530227,1605.1101615289226,1605.1101615289226,None,1605.1101615289226,None,None,1605.1101615289226,None,0.267,1606.2351736179553,None,,,,,,,,DEC019,001,2022_Nov_11_1340,2-25_cond_decay_EYE-try,2021.2.3,120.01439356575331,
left,0.75,1.0,0,2,0,2,0,1,0,1,0,0,5,5,9,,,,,,,,,,,,,,,1s,1607.293516509002,1608.2934616869316,1608.2851421299856,None,1609.2851320449263,1609.643551256042,1609.2851320449263,1609.643551256042,1609.643551256042,None,1609.643551256042,None,None,1609.643551256042,None,0.3572,1610.7686062110588,None,,,,,,,,DEC019,001,2022_Nov_11_1340,2-25_cond_decay_EYE-try,2021.2.3,120.01439356575331,
right,1.0,0.75,0,2,0,2,0,1,0,1,0,0,6,6,5,,,,,,,,,,,,,,,1s,1611.82687445404,1612.8268973429222,1612.81858091685,None,1613.8185854670592,1614.6851930220146,1613.8185854670592,1614.6851930220146,1614.6851930220146,None,1614.6851930220146,None,None,1614.6851930220146,None,0.8611,1615.8089769668877,None,,,,,,,,DEC019,001,2022_Nov_11_1340,2-25_cond_decay_EYE-try,2021.2.3,120.01439356575331,
right,1.0,0.75,0,2,0,2,0,1,0,1,0,0,7,7,3,,,,,,,,,,,,,,,1s,1616.8685531420633,1617.868578695925,1617.8602385600097,None,1618.8602585920598,1619.4603197488468,1618.8602585920598,1619.4603197488468,1619.451978327008,1620.4519255820196,1619.451978327008,1620.4519255820196,None,1619.451978327008,1620.4519255820196,0.5935,1620.5769911210518,None,,,,,,,,DEC019,001,2022_Nov_11_1340,2-25_cond_decay_EYE-try,2021.2.3,120.01439356575331,
right,0.75,1.0,1,2,0,2,0,1,0,1,0,0,8,8,4,,,,,,,,,,,,,,,1s,1621.635337045882,1622.6353496199008,1622.6270210598595,None,1623.6270409519784,1624.5353686138988,1623.6270409519784,1624.5353686138988,1624.5353686138988,None,1624.5353686138988,None,None,1624.5353686138988,None,0.9046,1625.6591803110205,None,,,,,,,,DEC019,001,2022_Nov_11_1340,2-25_cond_decay_EYE-try,2021.2.3,120.01439356575331,
left,0.75,1.0,0,2,0,2,0,1,0,1,0,0,9,9,0,,,,,,,,,,,,,,,1s,1626.7187129228842,1627.7186888400465,1627.710354321869,None,1628.7103516780771,1629.0604183890391,1628.7103516780771,1629.0604183890391,1629.0604183890391,None,1629.0604183890391,None,None,1629.0604183890391,None,0.3497,1630.1854337379336,None,,,,,,,,DEC019,001,2022_Nov_11_1340,2-25_cond_decay_EYE-try,2021.2.3,120.01439356575331,
left,1.0,0.75,1,2,0,2,0,1,0,1,0,1,0,10,2,,,,,,,,,,,,,,,1s,1631.235376812052,1632.2353981160559,1632.2271305930335,None,1633.2271359909791,1633.7604742089752,1633.2271359909791,1633.7604742089752,1633.7604742089752,None,1633.7604742089752,None,None,1633.7604742089752,None,0.534,1634.8841837588698,None,,,,,,,,DEC019,001,2022_Nov_11_1340,2-25_cond_decay_EYE-try,2021.2.3,120.01439356575331,
right,1.0,0.75,0,2,0,2,0,1,0,1,0,1,1,11,6,,,,,,,,,,,,,,,1s,1635.9437811700627,1636.9438348640688,1636.9355617328547,None,1637.9355114558712,1638.3355409540236,1637.9355114558712,1638.3355409540236,1638.327135374071,1639.3271444758866,1638.327135374071,1639.3271444758866,None,1638.327135374071,1639.3271444758866,0.3955,1639.4521908599418,None,,,,,,,,DEC019,001,2022_Nov_11_1340,2-25_cond_decay_EYE-try,2021.2.3,120.01439356575331,
left,0.75,1.0,0,2,0,2,0,1,0,1,0,1,2,12,0,,,,,,,,,,,,,,,1s,1640.5188197479583,1641.5188223719597,1641.5022137209307,None,1642.5022437060252,1642.7938249539584,1642.5022437060252,1642.7938249539584,1642.7938249539584,None,1642.7938249539584,None,None,1642.7938249539584,None,0.2893,1643.910584559897,None,,,,,,,,DEC019,001,2022_Nov_11_1340,2-25_cond_decay_EYE-try,2021.2.3,120.01439356575331,
right,0.75,1.0,1,2,0,2,0,1,0,1,0,1,3,13,4,,,,,,,,,,,,,,,1s,1644.9772630538791,1645.9772840158548,1645.968880899949,None,1646.9689431309234,1647.5188787169755,1646.9689431309234,1647.5188787169755,1647.5188787169755,None,1647.5188787169755,None,None,1647.5188787169755,None,0.5495,1648.6426582790446,None,,,,,,,,DEC019,001,2022_Nov_11_1340,2-25_cond_decay_EYE-try,2021.2.3,120.01439356575331,
left,0.75,1.0,0,2,0,2,0,1,0,1,0,1,4,14,9,,,,,,,,,,,,,,,1s,1649.6938981050625,1650.6939876549877,1650.685585290892,None,1651.685610574903,1652.677350515034,1651.685610574903,1652.677350515034,1652.677350515034,None,1652.677350515034,None,None,1652.677350515034,None,0.9926,1653.7940127649345,None,,,,,,,,DEC019,001,2022_Nov_11_1340,2-25_cond_decay_EYE-try,2021.2.3,120.01439356575331,
left,0.75,1.0,0,2,0,2,0,1,0,1,0,1,5,15,7,,,,,,,,,,,,,,,1s,1654.8524097460322,1655.8523656739853,1655.8439795658924,None,1656.8440431449562,1657.5190023288596,1656.8440431449562,1657.5190023288596,1657.5190023288596,None,1657.5190023288596,None,None,1657.5190023288596,None,0.6746,1658.642777828034,None,,,,,,,,DEC019,001,2022_Nov_11_1340,2-25_cond_decay_EYE-try,2021.2.3,120.01439356575331,
right,1.0,0.75,0,2,0,2,0,1,0,1,0,1,6,16,3,,,,,,,,,,,,,,,1s,1659.7025316350628,1660.7023579508532,1660.6857618228532,1663.5357176729012,1661.6856991439126,1662.5357153948862,1661.6856991439126,1662.5357153948862,1662.544060240034,None,1662.544060240034,None,None,1662.544060240034,None,0.851,1663.6678619480226,None,,,,,,,,DEC019,001,2022_Nov_11_1340,2-25_cond_decay_EYE-try,2021.2.3,120.01439356575331,
right,1.0,0.75,0,2,0,2,0,1,0,1,0,1,7,17,5,,,,,,,,,,,,,,,1s,1664.7274760620203,1665.727485395968,1665.7192021119408,None,1666.7190971560776,1666.8775077830069,1666.7190971560776,1666.8775077830069,1666.8775077830069,None,1666.8775077830069,None,None,1666.8775077830069,None,0.1593,1668.0012032298837,None,,,,,,,,DEC019,001,2022_Nov_11_1340,2-25_cond_decay_EYE-try,2021.2.3,120.01439356575331,
right,1.0,0.75,0,2,0,2,0,1,0,1,0,1,8,18,8,,,,,,,,,,,,,,,1s,1669.059550531907,1670.0608463350218,1670.0441519420128,None,1671.044134720927,1671.2024755198509,1671.044134720927,1671.2024755198509,1671.2024755198509,None,1671.2024755198509,None,None,1671.2024755198509,None,0.1547,1672.3262513428926,None,,,,,,,,DEC019,001,2022_Nov_11_1340,2-25_cond_decay_EYE-try,2021.2.3,120.01439356575331,
left,0.75,1.0,0,2,0,2,0,1,0,1,0,1,9,19,1,,,,,,,,,,,,,,,1s,1673.3775514168665,1674.3775085068773,1674.3691497689579,None,1675.3692814349197,1676.1192138688639,1675.3692814349197,1676.1192138688639,1676.1192138688639,None,1676.1192138688639,None,space,1676.1192138688639,None,0.7486,1676.5775866399053,None,0.32546072895638645,,,,,,,DEC019,001,2022_Nov_11_1340,2-25_cond_decay_EYE-try,2021.2.3,120.01439356575331,
,,,,2,0,2,0,1,0,1,0,,,,,,,,,,,,,,,,,,,,,,,,,,,,,,,,,,,,,,,,,,,,,DEC019,001,2022_Nov_11_1340,2-25_cond_decay_EYE-try,2021.2.3,120.01439356575331,
left,0.75,1.0,0,2,0,2,0,2,0,2,0,0,0,0,1,,,,,,,,,1677.4692752328701,None,1677.4692752328701,None,1677.4692752328701,None,5s,1680.3275921910536,1681.3276574320626,1681.3193194309715,None,1682.3193284349982,1686.2610039028805,1682.3193284349982,1686.2610039028805,1686.2610039028805,None,1686.2610039028805,None,None,1686.2610039028805,None,3.9418,1687.386050449917,None,,,,,,,,DEC019,001,2022_Nov_11_1340,2-25_cond_decay_EYE-try,2021.2.3,120.01439356575331,
right,1.0,0.75,0,2,0,2,0,2,0,2,0,0,1,1,7,,,,,,,,,,,,,,,5s,1688.4359824908897,1689.436008590972,1689.427661639871,None,1690.427676942898,1695.0777190618683,1690.427676942898,1695.0777190618683,1695.0777190618683,None,1695.0777190618683,None,space,1695.0777190618683,None,4.6492,1695.2694531150628,None,0.05255819414742291,,,,,,,DEC019,001,2022_Nov_11_1340,2-25_cond_decay_EYE-try,2021.2.3,120.01439356575331,
right,1.0,0.75,0,2,0,2,0,2,0,2,0,0,2,2,8,,,,,,,,,,,,,,,5s,1696.3194633240346,1697.319411840057,1697.3110993748996,None,1698.3111028040294,1699.6611143988557,1698.3111028040294,1699.6611143988557,1699.652850678889,1700.6528686359525,1699.652850678889,1700.6528686359525,None,1699.652850678889,1700.6528686359525,1.3457,1700.7861815879587,None,,,,,,,,DEC019,001,2022_Nov_11_1340,2-25_cond_decay_EYE-try,2021.2.3,120.01439356575331,
left,0.75,1.0,0,2,0,2,0,2,0,2,0,0,3,3,5,,,,,,,,,,,,,,,5s,1701.844528164016,1702.8444705379661,1702.8362146639265,None,1703.8362175910734,1708.2946534329094,1703.8362175910734,1708.2946534329094,1708.2946534329094,None,1708.2946534329094,None,None,1708.2946534329094,None,4.455,1709.4183182560373,None,,,,,,,,DEC019,001,2022_Nov_11_1340,2-25_cond_decay_EYE-try,2021.2.3,120.01439356575331,
left,0.75,1.0,0,2,0,2,0,2,0,2,0,0,4,4,6,,,,,,,,,,,,,,,5s,1710.4697290968616,1711.4696756198537,1711.4612344419584,None,1712.461243604077,1712.8529201049823,1712.461243604077,1712.8529201049823,1712.8529201049823,None,1712.8529201049823,None,None,1712.8529201049823,None,0.3895,1713.9696579370648,None,,,,,,,,DEC019,001,2022_Nov_11_1340,2-25_cond_decay_EYE-try,2021.2.3,120.01439356575331,
left,0.75,1.0,0,2,0,2,0,2,0,2,0,0,5,5,3,,,,,,,,,,,,,,,5s,1715.0350467059761,1716.0363507140428,1716.0196157868486,None,1717.0196451579686,1718.4947020378895,1717.0196451579686,1718.4947020378895,1718.4947020378895,None,1718.4947020378895,None,None,1718.4947020378895,None,1.472,1719.6184305220377,None,,,,,,,,DEC019,001,2022_Nov_11_1340,2-25_cond_decay_EYE-try,2021.2.3,120.01439356575331,
right,1.0,0.75,0,2,0,2,0,2,0,2,0,0,6,6,9,,,,,,,,,,,,,,,5s,1720.6780632489827,1721.6780074439012,1721.669671857031,None,1722.6696938080713,1726.6780753568746,1722.6696938080713,1726.6780753568746,1726.6697336188518,1727.6697353459895,1726.6697336188518,1727.6697353459895,None,1726.6697336188518,1727.6697353459895,4.0017,1727.7948163549881,None,,,,,,,,DEC019,001,2022_Nov_11_1340,2-25_cond_decay_EYE-try,2021.2.3,120.01439356575331,
left,0.75,1.0,0,2,0,2,0,2,0,2,0,0,7,7,4,,,,,,,,,,,,,,,5s,1728.8614208160434,1729.861431029858,1729.8531620309222,None,1730.8531147749163,1731.428194517037,1730.8531147749163,1731.428194517037,1731.428194517037,None,1731.428194517037,None,None,1731.428194517037,None,0.5712,1732.5448587730061,None,,,,,,,,DEC019,001,2022_Nov_11_1340,2-25_cond_decay_EYE-try,2021.2.3,120.01439356575331,
left,1.0,0.75,1,2,0,2,0,2,0,2,0,0,8,8,0,,,,,,,,,,,,,,,5s,1733.6032089248765,1734.6031540429685,1734.5948837560136,None,1735.5948244719766,1736.0115697470028,1735.5948244719766,1736.0115697470028,1736.0115697470028,None,1736.0115697470028,None,None,1736.0115697470028,None,0.4169,1737.13527117786,None,,,,,,,,DEC019,001,2022_Nov_11_1340,2-25_cond_decay_EYE-try,2021.2.3,120.01439356575331,
right,0.75,1.0,1,2,0,2,0,2,0,2,0,0,9,9,2,,,,,,,,,,,,,,,5s,1738.194922799943,1739.1949393129908,1739.1866029759403,None,1740.1865465240553,1742.3865719430614,1740.1865465240553,1742.3865719430614,1742.3783211300615,1743.378350473009,1742.3783211300615,1743.378350473009,None,1742.3783211300615,1743.378350473009,2.1935,1743.5103351289872,None,,,,,,,,DEC019,001,2022_Nov_11_1340,2-25_cond_decay_EYE-try,2021.2.3,120.01439356575331,
left,0.75,1.0,0,2,0,2,0,2,0,2,0,1,0,10,4,,,,,,,,,,,,,,,5s,1744.569998571882,1745.5699276849627,1745.5616029540543,None,1746.5616127918474,1748.9367106859572,1746.5616127918474,1748.9367106859572,1748.9367106859572,None,1748.9367106859572,None,space,1748.9367106859572,None,2.3707,1749.8117235898972,None,0.7441033481154591,,,,,,,DEC019,001,2022_Nov_11_1340,2-25_cond_decay_EYE-try,2021.2.3,120.01439356575331,
right,1.0,0.75,0,2,0,2,0,2,0,2,0,1,1,11,1,,,,,,,,,,,,,,,5s,1750.8700733310543,1751.8699941409286,1751.8616641669068,None,1752.8616897410247,1756.8701349119656,1752.8616897410247,1756.8701349119656,1756.8617912160698,1757.8617340479977,1756.8617912160698,1757.8617340479977,None,1756.8617912160698,1757.8617340479977,4.0036,1757.995129877003,None,,,,,,,,DEC019,001,2022_Nov_11_1340,2-25_cond_decay_EYE-try,2021.2.3,120.01439356575331,
right,0.75,1.0,1,2,0,2,0,2,0,2,0,1,2,12,2,,,,,,,,,,,,,,,5s,1759.0534774279222,1760.0534236559179,1760.045127970865,None,1761.04513347405,1766.036897164071,1761.04513347405,1766.036897164071,1766.028554263059,1767.0285692350008,1766.028554263059,1767.0285692350008,None,1766.028554263059,1767.0285692350008,4.9894,1767.160604228964,None,,,,,,,,DEC019,001,2022_Nov_11_1340,2-25_cond_decay_EYE-try,2021.2.3,120.01439356575331,
right,1.0,0.75,0,2,0,2,0,2,0,2,0,1,3,13,9,,,,,,,,,,,,,,,5s,1768.2118510049768,1769.2118613659404,1769.2035937630571,None,1770.2035365828779,1772.978633763967,1770.2035365828779,1772.978633763967,1772.978633763967,None,1772.978633763967,None,None,1772.978633763967,None,2.7747,1774.095259286929,None,,,,,,,,DEC019,001,2022_Nov_11_1340,2-25_cond_decay_EYE-try,2021.2.3,120.01439356575331,
right,1.0,0.75,0,2,0,2,0,2,0,2,0,1,4,14,8,,,,,,,,,,,,,,,5s,1775.160621369956,1776.161932565039,1776.153680789983,None,1777.153597659897,1777.5619309928734,1777.153597659897,1777.5619309928734,1777.5536679788493,1778.5536926048808,1777.5536679788493,1778.5536926048808,None,1777.5536679788493,1778.5536926048808,0.4026,1778.678677833872,None,,,,,,,,DEC019,001,2022_Nov_11_1340,2-25_cond_decay_EYE-try,2021.2.3,120.01439356575331,
left,0.75,1.0,0,2,0,2,0,2,0,2,0,1,5,15,3,,,,,,,,,,,,,,,5s,1779.7453202330507,1780.745319363894,1780.7369797560386,None,1781.7369907789398,1786.1871052479837,1781.7369907789398,1786.1871052479837,1786.1871052479837,None,1786.1871052479837,None,None,1786.1871052479837,None,4.4483,1787.3121041529812,None,,,,,,,,DEC019,001,2022_Nov_11_1340,2-25_cond_decay_EYE-try,2021.2.3,120.01439356575331,
left,0.75,1.0,0,2,0,2,0,2,0,2,0,1,6,16,5,,,,,,,,,,,,,,,5s,1788.3620668060612,1789.3620762468781,1789.3537335919682,None,1790.3537470479496,1793.6037947600707,1790.3537470479496,1793.6037947600707,1793.6037947600707,None,1793.6037947600707,None,None,1793.6037947600707,None,3.2491,1794.727552328026,None,,,,,,,,DEC019,001,2022_Nov_11_1340,2-25_cond_decay_EYE-try,2021.2.3,120.01439356575331,
right,1.0,0.75,0,2,0,2,0,2,0,2,0,1,7,17,7,,,,,,,,,,,,,,,5s,1795.7872156410012,1796.787214630982,1796.7788345490117,None,1797.778853958007,1798.5372440440115,1797.778853958007,1798.5372440440115,1798.5372440440115,None,1798.5372440440115,None,space,1798.5372440440115,None,0.756,1799.1122408320662,None,0.4421678490471095,,,,,,,DEC019,001,2022_Nov_11_1340,2-25_cond_decay_EYE-try,2021.2.3,120.01439356575331,
left,0.75,1.0,0,2,0,2,0,2,0,2,0,1,8,18,6,,,,,,,,,,,,,,,5s,1800.1705996210221,1801.1706236479804,1801.1622673110105,None,1802.1622738579754,1802.7955991190393,1802.1622738579754,1802.7955991190393,1802.7872823160142,None,1802.7872823160142,None,space,1802.7872823160142,None,0.6265,1803.285986386938,None,0.3671293498482555,,,,,,,DEC019,001,2022_Nov_11_1340,2-25_cond_decay_EYE-try,2021.2.3,120.01439356575331,
left,1.0,0.75,1,2,0,2,0,2,0,2,0,1,9,19,0,,,,,,,,,,,,,,,5s,1804.337226300966,1805.3372413679026,1805.328978294041,None,1806.328919885913,1811.0623787848745,1806.328919885913,1811.0623787848745,1811.0623787848745,None,1811.0623787848745,None,space,1811.0623787848745,None,4.7279,1811.4373713769019,None,0.24398193880915642,,,,,,,DEC019,001,2022_Nov_11_1340,2-25_cond_decay_EYE-try,2021.2.3,120.01439356575331,
,,,,2,0,2,0,2,0,2,0,,,,,,,,,,,,,,,,,,,,,,,,,,,,,,,,,,,,,,,,,,,,,DEC019,001,2022_Nov_11_1340,2-25_cond_decay_EYE-try,2021.2.3,120.01439356575331,
right,1.0,0.75,0,2,0,2,0,3,0,3,0,0,0,0,5,,,,,,,,,1812.329050644068,None,1812.329050644068,None,1812.329050644068,None,10s,1814.9374703879002,1815.937486962881,1815.9290137169883,None,1816.929094000021,1818.1707759359851,1816.929094000021,1818.1707759359851,1818.162470151903,None,1818.162470151903,None,space,1818.162470151903,None,1.2373,1818.6041183460038,None,0.3107424632180482,,,,,,,DEC019,001,2022_Nov_11_1340,2-25_cond_decay_EYE-try,2021.2.3,120.01439356575331,
right,1.0,0.75,0,2,0,2,0,3,0,3,0,0,1,1,0,,,,,,,,,,,,,,,10s,1819.6623867750168,1820.6624225859996,1820.6541332169436,None,1821.654150367016,1824.262450415874,1821.654150367016,1824.262450415874,1824.2541252679657,1825.254173713969,1824.2541252679657,1825.254173713969,None,1824.2541252679657,1825.254173713969,2.6015,1825.3875681990758,None,,,,,,,,DEC019,001,2022_Nov_11_1340,2-25_cond_decay_EYE-try,2021.2.3,120.01439356575331,
left,0.75,1.0,0,2,0,2,0,3,0,3,0,0,2,2,8,,,,,,,,,,,,,,,10s,1826.4458083719946,1827.4458854650147,1827.4374791809823,None,1828.4375530448742,1832.3208617048804,1828.4375530448742,1832.3208617048804,1832.3208617048804,None,1832.3208617048804,None,None,1832.3208617048804,None,3.884,1833.4376023609657,None,,,,,,,,DEC019,001,2022_Nov_11_1340,2-25_cond_decay_EYE-try,2021.2.3,120.01439356575331,
left,0.75,1.0,0,2,0,2,0,3,0,3,0,0,3,3,6,,,,,,,,,,,,,,,10s,1834.50421833992,1835.5042672019918,1835.4959019129165,None,1836.4959185670596,1837.0125820878893,1836.4959185670596,1837.0125820878893,1837.0042957470287,1838.0042563849129,1837.0042957470287,1838.0042563849129,None,1837.0042957470287,1838.0042563849129,0.5149,1838.1364654200152,None,,,,,,,,DEC019,001,2022_Nov_11_1340,2-25_cond_decay_EYE-try,2021.2.3,120.01439356575331,
right,1.0,0.75,0,2,0,2,0,3,0,3,0,0,4,4,4,,,,,,,,,,,,,,,10s,1839.196021416923,1840.1959442640655,1840.1876148418523,None,1841.187686625868,1846.3294188708533,1841.187686625868,1846.3294188708533,1846.3294188708533,None,1846.3294188708533,None,None,1846.3294188708533,None,5.14,1847.4531416608952,None,,,,,,,,DEC019,001,2022_Nov_11_1340,2-25_cond_decay_EYE-try,2021.2.3,120.01439356575331,
right,1.0,0.75,0,2,0,2,0,3,0,3,0,0,5,5,2,,,,,,,,,,,,,,,10s,1848.5127056338824,1849.512726743007,1849.5044706820045,None,1850.5044019629713,1860.3379334958736,1850.5044019629713,1860.3379334958736,1860.3294994388707,1861.329588843044,1860.3294994388707,1861.329588843044,None,1860.3294994388707,1861.329588843044,9.8304,1861.4545736778527,None,,,,,,,,DEC019,001,2022_Nov_11_1340,2-25_cond_decay_EYE-try,2021.2.3,120.01439356575331,
left,1.0,0.75,1,2,0,2,0,3,0,3,0,0,6,6,9,,,,,,,,,,,,,,,10s,1862.5212006089278,1863.5212614699267,1863.5128973410465,None,1864.5129022109322,1868.8212536249775,1864.5129022109322,1868.8212536249775,1868.8212536249775,None,1868.8212536249775,None,None,1868.8212536249775,None,4.3089,1869.9379957150668,None,,,,,,,,DEC019,001,2022_Nov_11_1340,2-25_cond_decay_EYE-try,2021.2.3,120.01439356575331,
left,0.75,1.0,0,2,0,2,0,3,0,3,0,0,7,7,1,,,,,,,,,,,,,,,10s,1870.9963341560215,1871.9963542688638,1871.9880131899845,None,1872.9880554499105,1879.0963631370105,1872.9880554499105,1879.0963631370105,1879.0963631370105,None,1879.0963631370105,None,None,1879.0963631370105,None,6.1057,1880.2201500649098,None,,,,,,,,DEC019,001,2022_Nov_11_1340,2-25_cond_decay_EYE-try,2021.2.3,120.01439356575331,
left,0.75,1.0,0,2,0,2,0,3,0,3,0,0,8,8,3,,,,,,,,,,,,,,,10s,1881.2784230769612,1882.2797558240127,1882.271391413873,None,1883.2714754110202,1889.938159554964,1883.2714754110202,1889.938159554964,1889.9298847720493,1890.9298310899176,1889.9298847720493,1890.9298310899176,None,1889.9298847720493,1890.9298310899176,6.6624,1891.0548825198784,None,,,,,,,,DEC019,001,2022_Nov_11_1340,2-25_cond_decay_EYE-try,2021.2.3,120.01439356575331,
right,1.0,0.75,0,2,0,2,0,3,0,3,0,0,9,9,7,,,,,,,,,,,,,,,10s,1892.1215236580465,1893.1215369808488,1893.1132372459397,None,1894.113201010041,1895.1549414938781,1894.113201010041,1895.1549414938781,1895.146539052017,None,1895.146539052017,None,space,1895.146539052017,None,1.0344,1895.7703128610738,None,0.48608360602520406,,,,,,,DEC019,001,2022_Nov_11_1340,2-25_cond_decay_EYE-try,2021.2.3,120.01439356575331,
left,0.75,1.0,0,2,0,2,0,3,0,3,0,1,0,10,6,,,,,,,,,,,,,,,10s,1896.8215724308975,1897.8216188119259,1897.8132448028773,None,1898.8132537498605,1899.8965842740145,1898.8132537498605,1899.8965842740145,1899.8965842740145,None,1899.8965842740145,None,None,1899.8965842740145,None,1.0829,1901.0216591979843,None,,,,,,,,DEC019,001,2022_Nov_11_1340,2-25_cond_decay_EYE-try,2021.2.3,120.01439356575331,
left,0.75,1.0,0,2,0,2,0,3,0,3,0,1,1,11,8,,,,,,,,,,,,,,,10s,1902.0787324619014,1903.0799524870235,1903.0634074979462,None,1904.0633033700287,1910.013361482881,1904.0633033700287,1910.013361482881,1910.013361482881,None,1910.013361482881,None,None,1910.013361482881,None,5.9444,1911.1371371019632,None,,,,,,,,DEC019,001,2022_Nov_11_1340,2-25_cond_decay_EYE-try,2021.2.3,120.01439356575331,
right,1.0,0.75,0,2,0,2,0,3,0,3,0,1,2,12,2,,,,,,,,,,,,,,,10s,1912.196797085926,1913.1967464750633,1913.1884723659605,None,1914.188489548862,1922.980184270069,1914.188489548862,1922.980184270069,1922.971899217926,1923.9718415169045,1922.971899217926,1923.9718415169045,None,1922.971899217926,1923.9718415169045,8.7894,1924.0969119579531,None,,,,,,,,DEC019,001,2022_Nov_11_1340,2-25_cond_decay_EYE-try,2021.2.3,120.01439356575331,
right,0.75,1.0,1,2,0,2,0,3,0,3,0,1,3,13,5,,,,,,,,,,,,,,,10s,1925.1635864828713,1926.1635524800513,1926.1552323789801,None,1927.1552621109877,1928.646899710875,1927.1552621109877,1928.646899710875,1928.6386320069432,1929.6386979238596,1928.6386320069432,1929.6386979238596,None,1928.6386320069432,1929.6386979238596,1.4895,1929.7706776999403,None,,,,,,,,DEC019,001,2022_Nov_11_1340,2-25_cond_decay_EYE-try,2021.2.3,120.01439356575331,
right,1.0,0.75,0,2,0,2,0,3,0,3,0,1,4,14,7,,,,,,,,,,,,,,,10s,1930.8219839239027,1931.822005592985,1931.8135937170591,None,1932.8136071509216,1941.7137001149822,1932.8136071509216,1941.7137001149822,1941.7137001149822,None,1941.7137001149822,None,space,1941.7137001149822,None,8.898,1942.2041348249186,None,0.3525231210514903,,,,,,,DEC019,001,2022_Nov_11_1340,2-25_cond_decay_EYE-try,2021.2.3,120.01439356575331,
left,0.75,1.0,0,2,0,2,0,3,0,3,0,1,5,15,1,,,,,,,,,,,,,,,10s,1943.2554437909275,1944.2554586199112,1944.2471741258632,None,1945.2470710200723,1945.8554212560412,1945.2470710200723,1945.8554212560412,1945.8554212560412,None,1945.8554212560412,None,space,1945.8554212560412,None,0.6064,1946.3554831738584,None,0.36922068893909454,,,,,,,DEC019,001,2022_Nov_11_1340,2-25_cond_decay_EYE-try,2021.2.3,120.01439356575331,
right,1.0,0.75,0,2,0,2,0,3,0,3,0,1,6,16,4,,,,,,,,,,,,,,,10s,1947.4054956759792,1948.4055081349798,1948.3971142289229,None,1949.3971289428882,1956.1388691868633,1949.3971289428882,1956.1388691868633,1956.1388691868633,None,1956.1388691868633,None,space,1956.1388691868633,None,6.7371,1956.6555912599433,None,0.38386961608193815,,,,,,,DEC019,001,2022_Nov_11_1340,2-25_cond_decay_EYE-try,2021.2.3,120.01439356575331,
right,1.0,0.75,0,2,0,2,0,3,0,3,0,1,7,17,0,,,,,,,,,,,,,,,10s,1957.7125910189934,1958.713884494966,1958.6972746460233,None,1959.6972404080443,1968.9306911649182,1959.6972404080443,1968.9306911649182,1968.9306911649182,None,1968.9306911649182,None,space,1968.9306911649182,None,9.2267,1969.372403000947,None,0.3108624389860779,,,,,,,DEC019,001,2022_Nov_11_1340,2-25_cond_decay_EYE-try,2021.2.3,120.01439356575331,
