attn_cue,left_ob,right_ob,congruent,runs.thisRepN,runs.thisTrialN,runs.thisN,runs.thisIndex,blocks.thisRepN,blocks.thisTrialN,blocks.thisN,blocks.thisIndex,trials.thisRepN,trials.thisTrialN,trials.thisN,trials.thisIndex,welcome.started,welcome.stopped,text_2.started,text_2.stopped,init_key_resp.keys,init_key_resp.rt,init_key_resp.started,init_key_resp.stopped,text_3.started,text_3.stopped,text_4.started,text_4.stopped,text_5.started,text_5.stopped,block_num,texter.started,texter.stopped,cross.started,cross.stopped,left_star.started,left_star.stopped,right_star.started,right_star.stopped,left_2.started,left_2.stopped,right_2.started,right_2.stopped,key_resp.keys,key_resp.rt,key_resp.started,key_resp.stopped,Rand Tim,text.started,text.stopped,end.started,end.stopped,text_6.started,text_6.stopped,text_7.started,text_7.stopped,participant,session,date,expName,psychopyVersion,frameRate,
,,,,,,,,,,,,,,,,129.12116420501843,None,129.12116420501843,None,space,2.7482149329734966,129.12116420501843,None,,,,,,,,,,,,,,,,,,,,,,,,,,,,,,,,,DEC012,001,2022_Aug_22_1817,2-25_cond_decay_EYE-try,2021.2.3,118.76672161759438,
left,0.75,1.0,0,0,0,0,0,0,0,0,0,0,0,0,2,,,,,,,,,131.89565957302693,None,131.89565957302693,None,131.89565957302693,None,5s,134.80316790007055,135.8047827850096,135.79650414502248,None,136.79663107299712,141.24629441206343,136.79663107299712,141.24629441206343,141.24629441206343,None,141.24629441206343,None,space,0.43903245602268726,141.24629441206343,None,4.4475,141.82825531403068,None,,,,,,,DEC012,001,2022_Aug_22_1817,2-25_cond_decay_EYE-try,2021.2.3,118.76672161759438,
left,1.0,0.75,1,0,0,0,0,0,0,0,0,0,1,1,0,,,,,,,,,,,,,,,5s,142.87087724998128,143.87146197096445,143.8634037419688,None,144.86322656006087,146.2466650090646,144.86322656006087,146.2466650090646,146.23864313901868,None,146.23864313901868,None,space,0.8706947939936072,146.23864313901868,None,1.3758,147.24575592996553,None,,,,,,,DEC012,001,2022_Aug_22_1817,2-25_cond_decay_EYE-try,2021.2.3,118.76672161759438,
right,1.0,0.75,0,0,0,0,0,0,0,0,0,0,2,2,6,,,,,,,,,,,,,,,5s,148.29692509304732,149.29649739107117,149.288332747994,None,150.2885058070533,153.20448700804263,150.2885058070533,153.20448700804263,153.20448700804263,None,153.20448700804263,None,space,0.3928587019909173,153.20448700804263,None,2.916,153.7373876470374,None,,,,,,,DEC012,001,2022_Aug_22_1817,2-25_cond_decay_EYE-try,2021.2.3,118.76672161759438,
left,0.75,1.0,0,0,0,0,0,0,0,0,0,0,3,3,4,,,,,,,,,,,,,,,5s,154.7954721429851,155.79662876506336,155.78865268803202,None,156.78825385600794,160.84630613401532,156.78825385600794,160.84630613401532,160.83815717301331,161.83826741797384,160.83815717301331,161.83826741797384,None,,160.83815717301331,161.83826741797384,4.0542,161.9789739419939,None,,,,,,,DEC012,001,2022_Aug_22_1817,2-25_cond_decay_EYE-try,2021.2.3,118.76672161759438,
left,0.75,1.0,0,0,0,0,0,0,0,0,0,0,4,4,1,,,,,,,,,,,,,,,5s,163.02188132400624,164.02207629999612,164.0130857799668,None,165.01294511603191,167.36311426700559,165.01294511603191,167.36311426700559,167.36311426700559,None,167.36311426700559,None,space,0.26629881700500846,167.36311426700559,None,2.3516,167.76259753399063,None,,,,,,,DEC012,001,2022_Aug_22_1817,2-25_cond_decay_EYE-try,2021.2.3,118.76672161759438,
right,1.0,0.75,0,0,0,0,0,0,0,0,0,0,5,5,7,,,,,,,,,,,,,,,5s,168.82044991396833,169.82144696905743,169.80496163701173,None,170.8049372290261,171.16349216899835,170.8049372290261,171.16349216899835,171.16349216899835,None,171.16349216899835,None,space,0.5618477900279686,171.16349216899835,None,0.3545,171.86238734505605,None,,,,,,,DEC012,001,2022_Aug_22_1817,2-25_cond_decay_EYE-try,2021.2.3,118.76672161759438,
right,1.0,0.75,0,0,0,0,0,0,0,0,0,0,6,6,9,,,,,,,,,,,,,,,5s,172.91278296604287,173.91359703603666,173.90495500003453,None,174.90509782999288,179.05526496306993,174.90509782999288,179.05526496306993,179.04727839806583,None,179.04727839806583,None,space,0.518065206008032,179.04727839806583,None,4.1458,179.70357761904597,None,,,,,,,DEC012,001,2022_Aug_22_1817,2-25_cond_decay_EYE-try,2021.2.3,118.76672161759438,
left,0.75,1.0,0,0,0,0,0,0,0,0,0,0,7,7,3,,,,,,,,,,,,,,,5s,180.7535831000423,181.75517879298422,181.74692122801207,None,182.74718466901686,187.62219482206274,182.74718466901686,187.62219482206274,187.61327056097798,None,187.61327056097798,None,space,0.4640711140818894,187.61327056097798,None,4.8703,188.21242339897435,None,,,,,,,DEC012,001,2022_Aug_22_1817,2-25_cond_decay_EYE-try,2021.2.3,118.76672161759438,
right,0.75,1.0,1,0,0,0,0,0,0,0,0,0,8,8,8,,,,,,,,,,,,,,,5s,189.2711455579847,190.27212768502068,190.26392717205454,None,191.26413722906727,195.3887517270632,191.26413722906727,195.3887517270632,195.38068647601176,None,195.38068647601176,None,space,0.3846508850110695,195.38068647601176,None,4.1199,195.90404847997706,None,,,,,,,DEC012,001,2022_Aug_22_1817,2-25_cond_decay_EYE-try,2021.2.3,118.76672161759438,
left,0.75,1.0,0,0,0,0,0,0,0,0,0,0,9,9,5,,,,,,,,,,,,,,,5s,196.96237765997648,197.96397639706265,197.95509728603065,None,198.95552758907434,199.88088928104844,198.95552758907434,199.88088928104844,199.88088928104844,None,199.88088928104844,None,space,0.4924498279578984,199.88088928104844,None,0.9241,200.50456201506313,None,,,,,,,DEC012,001,2022_Aug_22_1817,2-25_cond_decay_EYE-try,2021.2.3,118.76672161759438,
right,0.75,1.0,1,0,0,0,0,0,0,0,0,1,0,10,8,,,,,,,,,,,,,,,5s,201.5709567660233,202.57240679999813,202.56356232101098,None,203.5639848030405,207.88899961404968,203.5639848030405,207.88899961404968,207.880936705973,None,207.880936705973,None,space,0.30848498502746224,207.880936705973,None,4.3186,208.32255927997176,None,,,,,,,DEC012,001,2022_Aug_22_1817,2-25_cond_decay_EYE-try,2021.2.3,118.76672161759438,
right,1.0,0.75,0,0,0,0,0,0,0,0,0,1,1,11,6,,,,,,,,,,,,,,,5s,209.387708988972,210.38880294805858,210.38083047105465,None,211.38057516503613,212.1136852260679,211.38057516503613,212.1136852260679,212.10575227206573,None,212.10575227206573,None,space,0.5156752219190821,212.10575227206573,None,0.7297,212.75443614006508,None,,,,,,,DEC012,001,2022_Aug_22_1817,2-25_cond_decay_EYE-try,2021.2.3,118.76672161759438,
left,0.75,1.0,0,0,0,0,0,0,0,0,0,1,2,12,1,,,,,,,,,,,,,,,5s,213.81265939900186,214.8139728390379,214.7978211620357,None,215.79760506202,219.18879136501346,215.79760506202,219.18879136501346,219.19757482700516,None,219.19757482700516,None,space,0.3438375119585544,219.19757482700516,None,3.3923,219.6725744990399,None,,,,,,,DEC012,001,2022_Aug_22_1817,2-25_cond_decay_EYE-try,2021.2.3,118.76672161759438,
left,0.75,1.0,0,0,0,0,0,0,0,0,0,1,3,13,4,,,,,,,,,,,,,,,5s,220.7300369690638,221.73054737003986,221.72235024301335,None,222.72257521096617,223.230724937981,222.72257521096617,223.230724937981,223.22257073305082,None,223.22257073305082,None,space,0.5187864410690963,223.22257073305082,None,0.5037,223.8724421079969,None,,,,,,,DEC012,001,2022_Aug_22_1817,2-25_cond_decay_EYE-try,2021.2.3,118.76672161759438,
left,0.75,1.0,0,0,0,0,0,0,0,0,0,1,4,14,5,,,,,,,,,,,,,,,5s,224.9294646490598,225.9308248179732,225.92256865801755,None,226.92239742504898,231.63144682405982,226.92239742504898,231.63144682405982,231.63144682405982,None,231.63144682405982,None,space,0.38197648397181183,231.63144682405982,None,4.7057,232.1464914450189,None,,,,,,,DEC012,001,2022_Aug_22_1817,2-25_cond_decay_EYE-try,2021.2.3,118.76672161759438,
left,0.75,1.0,0,0,0,0,0,0,0,0,0,1,5,15,3,,,,,,,,,,,,,,,5s,233.20480713504367,234.2056306389859,234.19756003201474,None,235.1971718140412,235.8223452999955,235.1971718140412,235.8223452999955,235.8223452999955,None,235.8223452999955,None,space,0.5429897690191865,235.8223452999955,None,0.6241,236.497486009961,None,,,,,,,DEC012,001,2022_Aug_22_1817,2-25_cond_decay_EYE-try,2021.2.3,118.76672161759438,
right,1.0,0.75,0,0,0,0,0,0,0,0,0,1,6,16,9,,,,,,,,,,,,,,,5s,237.56267699005548,238.564633807051,238.54737673897762,None,239.54704652703367,240.4314560260391,239.54704652703367,240.4314560260391,240.4314560260391,None,240.4314560260391,None,space,0.5258992429589853,240.4314560260391,None,0.8827,241.09659134305548,None,,,,,,,DEC012,001,2022_Aug_22_1817,2-25_cond_decay_EYE-try,2021.2.3,118.76672161759438,
right,1.0,0.75,0,0,0,0,0,0,0,0,0,1,7,17,7,,,,,,,,,,,,,,,5s,242.14670290704817,243.14761630201247,243.13881137000863,None,244.13943493401166,246.09803873905912,244.13943493401166,246.09803873905912,246.09803873905912,None,246.09803873905912,None,space,0.44336586096324027,246.09803873905912,None,1.9572,246.67969293496571,None,,,,,,,DEC012,001,2022_Aug_22_1817,2-25_cond_decay_EYE-try,2021.2.3,118.76672161759438,
left,1.0,0.75,1,0,0,0,0,0,0,0,0,1,8,18,0,,,,,,,,,,,,,,,5s,247.7381500620395,248.7392266250681,248.7310826489702,None,249.73145550698973,253.2229647450149,249.73145550698973,253.2229647450149,253.2229647450149,None,253.2229647450149,None,space,0.3503842770587653,253.2229647450149,None,3.4897,253.70600139000453,None,,,,,,,DEC012,001,2022_Aug_22_1817,2-25_cond_decay_EYE-try,2021.2.3,118.76672161759438,
right,1.0,0.75,0,0,0,0,0,0,0,0,0,1,9,19,2,,,,,,,,,,,,,,,5s,254.76350513705984,255.76449872599915,255.756513355067,None,256.7561406349996,260.4482953590341,256.7561406349996,260.4482953590341,260.43947824207135,None,260.43947824207135,None,space,0.32587011891882867,260.43947824207135,None,3.6867,260.89804354298394,None,,,,,,,DEC012,001,2022_Aug_22_1817,2-25_cond_decay_EYE-try,2021.2.3,118.76672161759438,
,,,,0,0,0,0,0,0,0,0,,,,,,,,,,,,,,,,,,,,,,,,,,,,,,,,,,,,,,,,,,,,,DEC012,001,2022_Aug_22_1817,2-25_cond_decay_EYE-try,2021.2.3,118.76672161759438,
right,1.0,0.75,0,0,0,0,0,1,0,1,0,0,0,0,6,,,,,,,,,261.79748094500974,None,261.79748094500974,None,261.79748094500974,None,10s,264.01311889698263,265.0142526270356,265.0056402500486,None,266.00658312404994,275.2900731940754,266.00658312404994,275.2900731940754,275.2810638450319,None,275.2810638450319,None,space,0.4122927909484133,275.2810638450319,None,9.2799,275.8303411230445,None,,,,,,,DEC012,001,2022_Aug_22_1817,2-25_cond_decay_EYE-try,2021.2.3,118.76672161759438,
right,1.0,0.75,0,0,0,0,0,1,0,1,0,0,1,1,2,,,,,,,,,,,,,,,10s,276.8798767999979,277.881351773045,277.87312654498965,None,278.8728229489643,287.56470348406583,278.8728229489643,287.56470348406583,287.56470348406583,None,287.56470348406583,None,space,0.4806511040078476,287.56470348406583,None,8.6879,288.1797390279826,None,,,,,,,DEC012,001,2022_Aug_22_1817,2-25_cond_decay_EYE-try,2021.2.3,118.76672161759438,
right,1.0,0.75,0,0,0,0,0,1,0,1,0,0,2,2,3,,,,,,,,,,,,,,,10s,289.237977041048,290.24015155399684,290.22294160805177,None,291.2234161660308,292.98945712996647,291.2234161660308,292.98945712996647,292.98945712996647,None,292.98945712996647,None,space,0.32788077695295215,292.98945712996647,None,1.7603,293.45538901607506,None,,,,,,,DEC012,001,2022_Aug_22_1817,2-25_cond_decay_EYE-try,2021.2.3,118.76672161759438,
right,0.75,1.0,1,0,0,0,0,1,0,1,0,0,3,3,0,,,,,,,,,,,,,,,10s,294.5050551700406,295.5066782559734,295.49836766999215,None,296.4977508180309,300.29022576799616,296.4977508180309,300.29022576799616,300.28207122697495,None,300.28207122697495,None,space,0.3712750069098547,300.28207122697495,None,3.7888,300.7886136570014,None,,,,,,,DEC012,001,2022_Aug_22_1817,2-25_cond_decay_EYE-try,2021.2.3,118.76672161759438,
left,0.75,1.0,0,0,0,0,0,1,0,1,0,0,4,4,4,,,,,,,,,,,,,,,10s,301.84015581407584,302.84009414503817,302.8317670649849,None,303.8313888380071,305.607005752041,303.8313888380071,305.607005752041,305.607005752041,None,305.607005752041,None,space,0.43840210896451026,305.607005752041,None,1.7711,306.1803081940161,None,,,,,,,DEC012,001,2022_Aug_22_1817,2-25_cond_decay_EYE-try,2021.2.3,118.76672161759438,
left,0.75,1.0,0,0,0,0,0,1,0,1,0,0,5,5,5,,,,,,,,,,,,,,,10s,307.23147878900636,308.23130126006436,308.22299753001425,None,309.223363719997,318.6735426230589,309.223363719997,318.6735426230589,318.6735426230589,None,318.6735426230589,None,space,0.3478782919701189,318.6735426230589,None,9.4462,319.1552998860134,None,,,,,,,DEC012,001,2022_Aug_22_1817,2-25_cond_decay_EYE-try,2021.2.3,118.76672161759438,
left,0.75,1.0,0,0,0,0,0,1,0,1,0,0,6,6,8,,,,,,,,,,,,,,,10s,320.20565866003744,321.20661973604,321.1984090070473,None,322.19856119307224,329.7397791619878,322.19856119307224,329.7397791619878,329.73181908298284,None,329.73181908298284,None,space,0.5375491939485073,329.73181908298284,None,7.5371,330.40513535006903,None,,,,,,,DEC012,001,2022_Aug_22_1817,2-25_cond_decay_EYE-try,2021.2.3,118.76672161759438,
right,1.0,0.75,0,0,0,0,0,1,0,1,0,0,7,7,1,,,,,,,,,,,,,,,10s,331.4644004419679,332.46564346703235,332.4569476500619,None,333.4571636810433,339.90743612207007,333.4571636810433,339.90743612207007,339.90743612207007,None,339.90743612207007,None,space,0.40192498604301363,339.90743612207007,None,6.4485,340.43934925599024,None,,,,,,,DEC012,001,2022_Aug_22_1817,2-25_cond_decay_EYE-try,2021.2.3,118.76672161759438,
left,1.0,0.75,1,0,0,0,0,1,0,1,0,0,8,8,9,,,,,,,,,,,,,,,10s,341.5061947730137,342.5072659669677,342.498323854059,None,343.4990050459746,349.290856409003,343.4990050459746,349.290856409003,349.290856409003,None,349.290856409003,None,space,0.3705055440077558,349.290856409003,None,5.792,349.797052695998,None,,,,,,,DEC012,001,2022_Aug_22_1817,2-25_cond_decay_EYE-try,2021.2.3,118.76672161759438,
right,1.0,0.75,0,0,0,0,0,1,0,1,0,0,9,9,7,,,,,,,,,,,,,,,10s,350.8560523240594,351.85716101701837,351.8490333450027,None,352.8487974150339,361.80717194406316,352.8487974150339,361.80717194406316,361.79891283006873,None,361.79891283006873,None,space,0.32646701904013753,361.79891283006873,None,8.9561,362.26434191607405,None,,,,,,,DEC012,001,2022_Aug_22_1817,2-25_cond_decay_EYE-try,2021.2.3,118.76672161759438,
right,1.0,0.75,0,0,0,0,0,1,0,1,0,1,0,10,1,,,,,,,,,,,,,,,10s,363.31403558305465,364.3156715859659,364.30755524197593,None,365.3072332110023,367.54031004407443,365.3072332110023,367.54031004407443,367.54031004407443,None,367.54031004407443,None,space,0.5850455629406497,367.54031004407443,None,2.2319,368.2641703520203,None,,,,,,,DEC012,001,2022_Aug_22_1817,2-25_cond_decay_EYE-try,2021.2.3,118.76672161759438,
right,1.0,0.75,0,0,0,0,0,1,0,1,0,1,1,11,7,,,,,,,,,,,,,,,10s,369.3152897480177,370.31586364703253,370.30757840001024,None,371.30757707206067,379.1239874380408,371.30757707206067,379.1239874380408,379.1239874380408,None,379.1239874380408,None,space,0.4814429930411279,379.1239874380408,None,7.8155,379.7390716850059,None,,,,,,,DEC012,001,2022_Aug_22_1817,2-25_cond_decay_EYE-try,2021.2.3,118.76672161759438,
right,0.75,1.0,1,0,0,0,0,1,0,1,0,1,2,12,0,,,,,,,,,,,,,,,10s,380.7892187440302,381.7906560910633,381.7825822579907,None,382.7824323690729,383.64071285899263,382.7824323690729,383.64071285899263,383.63274361297954,None,383.63274361297954,None,space,0.6846341700293124,383.63274361297954,None,0.8525,384.4488847249886,None,,,,,,,DEC012,001,2022_Aug_22_1817,2-25_cond_decay_EYE-try,2021.2.3,118.76672161759438,
left,0.75,1.0,0,0,0,0,0,1,0,1,0,1,3,13,4,,,,,,,,,,,,,,,10s,385.5142707499908,386.5159776050132,386.50725732697174,None,387.50743626698386,396.63227758102585,387.50743626698386,396.63227758102585,396.6243308229605,397.62371763400733,396.6243308229605,397.62371763400733,None,,396.6243308229605,397.62371763400733,9.1226,397.7559596779756,None,,,,,,,DEC012,001,2022_Aug_22_1817,2-25_cond_decay_EYE-try,2021.2.3,118.76672161759438,
right,1.0,0.75,0,0,0,0,0,1,0,1,0,1,4,14,2,,,,,,,,,,,,,,,10s,398.8146145530045,399.81602959602606,399.80737485399004,None,400.8072609209921,403.2571989700664,400.8072609209921,403.2571989700664,403.2571989700664,None,403.2571989700664,None,space,0.46022842009551823,403.2571989700664,None,2.4509,403.85608271101955,None,,,,,,,DEC012,001,2022_Aug_22_1817,2-25_cond_decay_EYE-try,2021.2.3,118.76672161759438,
left,0.75,1.0,0,0,0,0,0,1,0,1,0,1,5,15,6,,,,,,,,,,,,,,,10s,404.91504426300526,405.9164320350392,405.9071938600391,None,406.9075245310087,410.7497273919871,406.9075245310087,410.7497273919871,410.7497273919871,None,410.7497273919871,None,space,0.3436455089831725,410.7497273919871,None,3.8372,411.2245159180602,None,,,,,,,DEC012,001,2022_Aug_22_1817,2-25_cond_decay_EYE-try,2021.2.3,118.76672161759438,
right,1.0,0.75,0,0,0,0,0,1,0,1,0,1,6,16,3,,,,,,,,,,,,,,,10s,412.2895133360289,413.2915126180742,413.27415177598596,None,414.2741228980012,417.52447800699156,414.2741228980012,417.52447800699156,417.5331480810419,None,417.5331480810419,None,None,,417.5331480810419,None,3.2515,418.65668653696775,None,,,,,,,DEC012,001,2022_Aug_22_1817,2-25_cond_decay_EYE-try,2021.2.3,118.76672161759438,
left,0.75,1.0,0,0,0,0,0,1,0,1,0,1,7,17,5,,,,,,,,,,,,,,,10s,419.70752118201926,420.70739740505815,420.69957851199433,None,421.69979167403653,423.3326169580687,421.69979167403653,423.3326169580687,423.32454134407453,None,423.32454134407453,None,space,0.7288401590194553,423.32454134407453,None,1.6267,424.1899974240223,None,,,,,,,DEC012,001,2022_Aug_22_1817,2-25_cond_decay_EYE-try,2021.2.3,118.76672161759438,
left,0.75,1.0,0,0,0,0,0,1,0,1,0,1,8,18,8,,,,,,,,,,,,,,,10s,425.2401894170325,426.24112555000465,426.2330721979961,None,427.2329340929864,434.0910227879649,427.2329340929864,434.0910227879649,434.0910227879649,None,434.0910227879649,None,space,0.34635067102499306,434.0910227879649,None,6.858,434.57313744106796,None,,,,,,,DEC012,001,2022_Aug_22_1817,2-25_cond_decay_EYE-try,2021.2.3,118.76672161759438,
left,1.0,0.75,1,0,0,0,0,1,0,1,0,1,9,19,9,,,,,,,,,,,,,,,10s,435.6235955960583,436.6251625220757,436.6164491670206,None,437.6162874890724,439.0749562269775,437.6162874890724,439.0749562269775,439.0749562269775,None,439.0749562269775,None,None,,439.0749562269775,None,1.4565,440.19794387207367,None,,,,,,,DEC012,001,2022_Aug_22_1817,2-25_cond_decay_EYE-try,2021.2.3,118.76672161759438,
,,,,0,0,0,0,1,0,1,0,,,,,,,,,,,,,,,,,,,,,,,,,,,,,,,,,,,,,,,,,,,,,DEC012,001,2022_Aug_22_1817,2-25_cond_decay_EYE-try,2021.2.3,118.76672161759438,
left,0.75,1.0,0,0,0,0,0,2,0,2,0,0,0,0,2,,,,,,,,,441.09062209399417,None,441.09062209399417,None,441.09062209399417,None,3s,445.19102714804467,446.19162296003196,446.1827454500599,None,447.1827014529845,447.79097445402294,447.1827014529845,447.79097445402294,447.7833010579925,448.7832069139695,447.7833010579925,448.7832069139695,None,,447.7833010579925,448.7832069139695,0.6029,448.9156299100723,None,,,,,,,DEC012,001,2022_Aug_22_1817,2-25_cond_decay_EYE-try,2021.2.3,118.76672161759438,
right,1.0,0.75,0,0,0,0,0,2,0,2,0,0,1,1,6,,,,,,,,,,,,,,,3s,449.9650346270064,450.9660184449749,450.9579230060335,None,451.9581429300597,453.824557124055,451.9581429300597,453.824557124055,453.824557124055,None,453.824557124055,None,space,0.35682262398768216,453.824557124055,None,1.8675,454.3158655130537,None,,,,,,,DEC012,001,2022_Aug_22_1817,2-25_cond_decay_EYE-try,2021.2.3,118.76672161759438,
left,0.75,1.0,0,0,0,0,0,2,0,2,0,0,2,2,1,,,,,,,,,,,,,,,3s,455.37374907406047,456.37506756396033,456.3584256930044,None,457.35855075204745,460.22487243800424,457.35855075204745,460.22487243800424,460.22487243800424,None,460.22487243800424,None,space,0.2924998630769551,460.22487243800424,None,2.8626,460.6500438810326,None,,,,,,,DEC012,001,2022_Aug_22_1817,2-25_cond_decay_EYE-try,2021.2.3,118.76672161759438,
left,0.75,1.0,0,0,0,0,0,2,0,2,0,0,3,3,7,,,,,,,,,,,,,,,3s,461.7150494660018,462.7167717360426,462.69958336802665,None,463.69959958305117,464.0827946179779,463.69959958305117,464.0827946179779,464.0916039010044,None,464.0916039010044,None,space,0.6818494090111926,464.0916039010044,None,0.3835,464.9069825930055,None,,,,,,,DEC012,001,2022_Aug_22_1817,2-25_cond_decay_EYE-try,2021.2.3,118.76672161759438,
right,1.0,0.75,0,0,0,0,0,2,0,2,0,0,4,4,9,,,,,,,,,,,,,,,3s,465.96530051901937,466.9668250649702,466.95875537302345,None,467.95841483806726,468.2586599830538,467.95841483806726,468.2586599830538,468.2497592680156,None,468.2497592680156,None,space,0.5316857378929853,468.2497592680156,None,0.2979,468.91514207900036,None,,,,,,,DEC012,001,2022_Aug_22_1817,2-25_cond_decay_EYE-try,2021.2.3,118.76672161759438,
right,1.0,0.75,0,0,0,0,0,2,0,2,0,0,5,5,4,,,,,,,,,,,,,,,3s,469.96499320399016,470.9668242940679,470.9586095670238,None,471.9583349269815,474.399606576073,471.9583349269815,474.399606576073,474.3916152410675,None,474.3916152410675,None,space,0.3818457929883152,474.3916152410675,None,2.4368,474.90697845001705,None,,,,,,,DEC012,001,2022_Aug_22_1817,2-25_cond_decay_EYE-try,2021.2.3,118.76672161759438,
right,0.75,1.0,1,0,0,0,0,2,0,2,0,0,6,6,3,,,,,,,,,,,,,,,3s,475.95700151799247,476.95866967202164,476.9499397290638,None,477.9500317060156,480.858676427044,477.9500317060156,480.858676427044,480.858676427044,None,480.858676427044,None,space,0.37069602392148226,480.858676427044,None,2.9083,481.36509183305316,None,,,,,,,DEC012,001,2022_Aug_22_1817,2-25_cond_decay_EYE-try,2021.2.3,118.76672161759438,
right,1.0,0.75,0,0,0,0,0,2,0,2,0,0,7,7,5,,,,,,,,,,,,,,,3s,482.4235841759946,483.4256375289988,483.41648760903627,None,484.4171324140625,484.6752694550669,484.4171324140625,484.6752694550669,484.66736682201736,None,484.66736682201736,None,space,0.48208218498621136,484.66736682201736,None,0.2556,485.2817950580502,None,,,,,,,DEC012,001,2022_Aug_22_1817,2-25_cond_decay_EYE-try,2021.2.3,118.76672161759438,
left,0.75,1.0,0,0,0,0,0,2,0,2,0,0,8,8,0,,,,,,,,,,,,,,,3s,486.34049885801505,487.34164256299846,487.33401656500064,None,488.3331786460476,488.54978026403114,488.3331786460476,488.54978026403114,488.5418347680243,None,488.5418347680243,None,space,0.47156020905822515,488.5418347680243,None,0.2148,489.14850005705375,None,,,,,,,DEC012,001,2022_Aug_22_1817,2-25_cond_decay_EYE-try,2021.2.3,118.76672161759438,
left,1.0,0.75,1,0,0,0,0,2,0,2,0,0,9,9,8,,,,,,,,,,,,,,,3s,490.19899445201736,491.2004319970729,491.1921263340628,None,492.1918795600068,495.1334929410368,492.1918795600068,495.1334929410368,495.1253151759738,None,495.1253151759738,None,space,0.3521458520554006,495.1253151759738,None,2.9364,495.61580525303725,None,,,,,,,DEC012,001,2022_Aug_22_1817,2-25_cond_decay_EYE-try,2021.2.3,118.76672161759438,
right,1.0,0.75,0,0,0,0,0,2,0,2,0,1,0,10,5,,,,,,,,,,,,,,,3s,496.6654179560719,497.6664494960569,497.65052048303187,None,498.6502744239988,500.8091961509781,498.6502744239988,500.8091961509781,500.8091961509781,None,500.8091961509781,None,space,0.3562771659344435,500.8091961509781,None,2.155,501.2985692459624,None,,,,,,,DEC012,001,2022_Aug_22_1817,2-25_cond_decay_EYE-try,2021.2.3,118.76672161759438,
left,0.75,1.0,0,0,0,0,0,2,0,2,0,1,1,11,0,,,,,,,,,,,,,,,3s,502.3486113699619,503.35041536402423,503.34242777107283,None,504.33419210801367,505.55845444404986,504.33419210801367,505.55845444404986,505.55845444404986,None,505.55845444404986,None,space,0.37492912099696696,505.55845444404986,None,1.2238,506.0657306810608,None,,,,,,,DEC012,001,2022_Aug_22_1817,2-25_cond_decay_EYE-try,2021.2.3,118.76672161759438,
right,1.0,0.75,0,0,0,0,0,2,0,2,0,1,2,12,4,,,,,,,,,,,,,,,3s,507.12424036103766,508.125400079065,508.11719028803054,None,509.1171222049743,510.1008438770659,509.1171222049743,510.1008438770659,510.0916474299738,None,510.0916474299738,None,space,0.3937424010364339,510.0916474299738,None,0.9768,510.62367757502943,None,,,,,,,DEC012,001,2022_Aug_22_1817,2-25_cond_decay_EYE-try,2021.2.3,118.76672161759438,
left,0.75,1.0,0,0,0,0,0,2,0,2,0,1,3,13,7,,,,,,,,,,,,,,,3s,511.67445413197856,512.6753328320337,512.667320610024,None,513.6675152280368,514.4841240859823,513.6675152280368,514.4841240859823,514.4841240859823,None,514.4841240859823,None,space,0.473267711000517,514.4841240859823,None,0.8156,515.0905978069641,None,,,,,,,DEC012,001,2022_Aug_22_1817,2-25_cond_decay_EYE-try,2021.2.3,118.76672161759438,
right,1.0,0.75,0,0,0,0,0,2,0,2,0,1,4,14,6,,,,,,,,,,,,,,,3s,516.1493967750575,517.1501456110273,517.1427000700496,None,518.1424222870264,520.2842584140599,518.1424222870264,520.2842584140599,520.2754598300671,None,520.2754598300671,None,space,0.31392614694777876,520.2754598300671,None,2.1387,520.7247606409946,None,,,,,,,DEC012,001,2022_Aug_22_1817,2-25_cond_decay_EYE-try,2021.2.3,118.76672161759438,
right,1.0,0.75,0,0,0,0,0,2,0,2,0,1,5,15,9,,,,,,,,,,,,,,,3s,521.7754713849863,522.7751723610563,522.7670810880372,None,523.7671140540624,525.61689010798,523.7671140540624,525.61689010798,525.6090427750023,None,525.6090427750023,None,space,0.43634503695648164,525.6090427750023,None,1.8437,526.1824506240664,None,,,,,,,DEC012,001,2022_Aug_22_1817,2-25_cond_decay_EYE-try,2021.2.3,118.76672161759438,
left,0.75,1.0,0,0,0,0,0,2,0,2,0,1,6,16,2,,,,,,,,,,,,,,,3s,527.2411079290323,528.2421762970043,528.2340982280439,None,529.2342237520497,531.4091268910561,529.2342237520497,531.4091268910561,531.4091268910561,None,531.4091268910561,None,space,0.44424427999183536,531.4091268910561,None,2.1757,531.9839536780491,None,,,,,,,DEC012,001,2022_Aug_22_1817,2-25_cond_decay_EYE-try,2021.2.3,118.76672161759438,
left,0.75,1.0,0,0,0,0,0,2,0,2,0,1,7,17,1,,,,,,,,,,,,,,,3s,533.0497316530673,534.0511300710496,534.0337691960158,None,535.033799087978,537.0506252429914,535.033799087978,537.0506252429914,537.0506252429914,None,537.0506252429914,None,space,0.49882616999093443,537.0506252429914,None,2.0161,537.6823087920202,None,,,,,,,DEC012,001,2022_Aug_22_1817,2-25_cond_decay_EYE-try,2021.2.3,118.76672161759438,
left,1.0,0.75,1,0,0,0,0,2,0,2,0,1,8,18,8,,,,,,,,,,,,,,,3s,538.7341115580639,539.7341199470684,539.7261829769704,None,540.7262065840187,542.1676887329668,540.7262065840187,542.1676887329668,542.1676887329668,None,542.1676887329668,None,space,0.5097045890288427,542.1676887329668,None,1.4401,542.8163442279911,None,,,,,,,DEC012,001,2022_Aug_22_1817,2-25_cond_decay_EYE-try,2021.2.3,118.76672161759438,
right,0.75,1.0,1,0,0,0,0,2,0,2,0,1,9,19,3,,,,,,,,,,,,,,,3s,543.8748971970053,544.8758583340095,544.8676106029889,None,545.8674615269993,547.9255941109732,545.8674615269993,547.9255941109732,547.9255941109732,None,547.9255941109732,None,space,0.30380313692148775,547.9255941109732,None,2.056,548.3661658189958,None,,,,,,,DEC012,001,2022_Aug_22_1817,2-25_cond_decay_EYE-try,2021.2.3,118.76672161759438,
,,,,0,0,0,0,2,0,2,0,,,,,,,,,,,,,,,,,,,,,,,,,,,,,,,,,,,,,,,,,,,,,DEC012,001,2022_Aug_22_1817,2-25_cond_decay_EYE-try,2021.2.3,118.76672161759438,
left,0.75,1.0,0,0,0,0,0,3,0,3,0,0,0,0,3,,,,,,,,,549.2574500159826,None,549.2574500159826,None,549.2574500159826,None,1s,554.1584182030056,555.1587571699638,555.1510566150537,None,556.1503746310482,556.4427375510568,556.1503746310482,556.4427375510568,556.4347081129672,None,556.4347081129672,None,space,0.3227574130287394,556.4347081129672,None,0.2864,556.8910479190527,None,,,,,,,DEC012,001,2022_Aug_22_1817,2-25_cond_decay_EYE-try,2021.2.3,118.76672161759438,
right,1.0,0.75,0,0,0,0,0,3,0,3,0,0,1,1,6,,,,,,,,,,,,,,,1s,557.9416868520202,558.942718722974,558.9262882319745,None,559.9255833310308,560.8588390740333,559.9255833310308,560.8588390740333,560.8588390740333,None,560.8588390740333,None,space,0.290638612001203,560.8588390740333,None,0.9323,561.283051114995,None,,,,,,,DEC012,001,2022_Aug_22_1817,2-25_cond_decay_EYE-try,2021.2.3,118.76672161759438,
right,0.75,1.0,1,0,0,0,0,3,0,3,0,0,2,2,1,,,,,,,,,,,,,,,1s,562.3333865220193,563.3346100780182,563.3179191760719,None,564.3173800159711,564.6096422850387,564.3173800159711,564.6096422850387,564.617327864049,None,564.617327864049,None,space,0.5640740350354463,564.617327864049,None,0.2923,565.3159539330518,None,,,,,,,DEC012,001,2022_Aug_22_1817,2-25_cond_decay_EYE-try,2021.2.3,118.76672161759438,
left,0.75,1.0,0,0,0,0,0,3,0,3,0,0,3,3,0,,,,,,,,,,,,,,,1s,566.3743264409713,567.3765007280745,567.3676423260476,None,568.367660133983,568.7927245380124,568.367660133983,568.7927245380124,568.7841633619973,None,568.7841633619973,None,space,0.5492359210038558,568.7841633619973,None,0.4175,569.4660916080466,None,,,,,,,DEC012,001,2022_Aug_22_1817,2-25_cond_decay_EYE-try,2021.2.3,118.76672161759438,
left,0.75,1.0,0,0,0,0,0,3,0,3,0,0,4,4,2,,,,,,,,,,,,,,,1s,570.5160400910536,571.5176312370459,571.5095666160341,None,572.5095283910632,573.3424126979662,572.5095283910632,573.3424126979662,573.3343218580121,None,573.3343218580121,None,space,0.3430678310105577,573.3343218580121,None,0.8273,573.808622697019,None,,,,,,,DEC012,001,2022_Aug_22_1817,2-25_cond_decay_EYE-try,2021.2.3,118.76672161759438,
right,1.0,0.75,0,0,0,0,0,3,0,3,0,0,5,5,5,,,,,,,,,,,,,,,1s,574.8753190899733,575.8762438789709,575.8594339080155,None,576.8590928519843,577.3512385750655,576.8590928519843,577.3512385750655,577.3512385750655,None,577.3512385750655,None,space,0.8221513389144093,577.3512385750655,None,0.4904,578.3079445039621,None,,,,,,,DEC012,001,2022_Aug_22_1817,2-25_cond_decay_EYE-try,2021.2.3,118.76672161759438,
right,1.0,0.75,0,0,0,0,0,3,0,3,0,0,6,6,8,,,,,,,,,,,,,,,1s,579.3586925209966,580.359311318025,580.3512676330283,None,581.3510925009614,582.334877136047,581.3510925009614,582.334877136047,582.334877136047,None,582.334877136047,None,space,0.4545240509323776,582.334877136047,None,0.9811,582.9247769600479,None,,,,,,,DEC012,001,2022_Aug_22_1817,2-25_cond_decay_EYE-try,2021.2.3,118.76672161759438,
left,0.75,1.0,0,0,0,0,0,3,0,3,0,0,7,7,7,,,,,,,,,,,,,,,1s,583.9833529110765,584.9844800910214,584.9765068950364,None,585.9761590730632,586.1765916410368,585.9761590730632,586.1765916410368,586.1676259130472,None,586.1676259130472,None,space,0.39785083604510874,586.1676259130472,None,0.1975,586.6996667759959,None,,,,,,,DEC012,001,2022_Aug_22_1817,2-25_cond_decay_EYE-try,2021.2.3,118.76672161759438,
left,0.75,1.0,0,0,0,0,0,3,0,3,0,0,8,8,9,,,,,,,,,,,,,,,1s,587.7582736309851,588.759224348003,588.7508630630327,None,589.7509902559686,590.1014517240692,589.7509902559686,590.1014517240692,590.0924503540155,None,590.0924503540155,None,space,0.46502159000374377,590.0924503540155,None,0.3464,590.6916356500005,None,,,,,,,DEC012,001,2022_Aug_22_1817,2-25_cond_decay_EYE-try,2021.2.3,118.76672161759438,
left,1.0,0.75,1,0,0,0,0,3,0,3,0,0,9,9,4,,,,,,,,,,,,,,,1s,591.741277002031,592.742942883051,592.7350637760246,None,593.73476072005,594.5598360290751,593.73476072005,594.5598360290751,594.55079535197,None,594.55079535197,None,space,0.3667146780062467,594.55079535197,None,0.8226,595.0502260919893,None,,,,,,,DEC012,001,2022_Aug_22_1817,2-25_cond_decay_EYE-try,2021.2.3,118.76672161759438,
left,1.0,0.75,1,0,0,0,0,3,0,3,0,1,0,10,4,,,,,,,,,,,,,,,1s,596.1012349880766,597.1011634870665,597.0929985539988,None,598.0927400679793,599.0175872839754,598.0927400679793,599.0175872839754,599.0175872839754,None,599.0175872839754,None,space,0.3558153760386631,599.0175872839754,None,0.9235,599.5086029870436,None,,,,,,,DEC012,001,2022_Aug_22_1817,2-25_cond_decay_EYE-try,2021.2.3,118.76672161759438,
left,0.75,1.0,0,0,0,0,0,3,0,3,0,1,1,11,9,,,,,,,,,,,,,,,1s,600.5672194770304,601.5682062290143,601.5509805059992,None,602.5513223320013,603.1351589750266,602.5513223320013,603.1351589750266,603.1351589750266,None,603.1351589750266,None,space,0.37422769609838724,603.1351589750266,None,0.5812,603.6413770279614,None,,,,,,,DEC012,001,2022_Aug_22_1817,2-25_cond_decay_EYE-try,2021.2.3,118.76672161759438,
left,0.75,1.0,0,0,0,0,0,3,0,3,0,1,2,12,7,,,,,,,,,,,,,,,1s,604.6923142409651,605.6931080020731,605.6850951530505,None,606.6843549889745,607.0681877509924,606.6843549889745,607.0681877509924,607.0594076149864,None,607.0594076149864,None,space,0.42598395806271583,607.0594076149864,None,0.3803,607.6249645369826,None,,,,,,,DEC012,001,2022_Aug_22_1817,2-25_cond_decay_EYE-try,2021.2.3,118.76672161759438,
right,1.0,0.75,0,0,0,0,0,3,0,3,0,1,3,13,6,,,,,,,,,,,,,,,1s,608.6831563799642,609.6850655029994,609.6769897680497,None,610.6761034929659,611.5429245199775,610.6761034929659,611.5429245199775,611.5429245199775,None,611.5429245199775,None,space,0.3985404160339385,611.5429245199775,None,0.8653,612.0752522640396,None,,,,,,,DEC012,001,2022_Aug_22_1817,2-25_cond_decay_EYE-try,2021.2.3,118.76672161759438,
right,0.75,1.0,1,0,0,0,0,3,0,3,0,1,4,14,1,,,,,,,,,,,,,,,1s,613.1251261660364,614.1270353540312,614.1183893530397,None,615.1184503050754,615.7760309940204,615.1184503050754,615.7760309940204,615.7760309940204,None,615.7760309940204,None,space,0.5413777529029176,615.7760309940204,None,0.6574,616.4504905469948,None,,,,,,,DEC012,001,2022_Aug_22_1817,2-25_cond_decay_EYE-try,2021.2.3,118.76672161759438,
left,0.75,1.0,0,0,0,0,0,3,0,3,0,1,5,15,0,,,,,,,,,,,,,,,1s,617.5019187630387,618.5017551049823,618.4935108380159,None,619.4934232210508,620.1679516190197,619.4934232210508,620.1679516190197,620.1679516190197,None,620.1679516190197,None,space,0.3495148259680718,620.1679516190197,None,0.6724,620.6501873920206,None,,,,,,,DEC012,001,2022_Aug_22_1817,2-25_cond_decay_EYE-try,2021.2.3,118.76672161759438,
left,0.75,1.0,0,0,0,0,0,3,0,3,0,1,6,16,2,,,,,,,,,,,,,,,1s,621.7000950280344,622.7020727840718,622.6844439660199,None,623.6844997380394,623.8435492130229,623.6844997380394,623.8435492130229,623.8435492130229,None,623.8435492130229,None,space,0.4178453990025446,623.8435492130229,None,0.1523,624.4005398839945,None,,,,,,,DEC012,001,2022_Aug_22_1817,2-25_cond_decay_EYE-try,2021.2.3,118.76672161759438,
right,1.0,0.75,0,0,0,0,0,3,0,3,0,1,7,17,3,,,,,,,,,,,,,,,1s,625.458807750023,626.4597015629988,626.4517170480685,None,627.4516436250415,628.4179281509714,627.4516436250415,628.4179281509714,628.4179281509714,None,628.4179281509714,None,space,0.46747237094677985,628.4179281509714,None,0.9668,629.017454360961,None,,,,,,,DEC012,001,2022_Aug_22_1817,2-25_cond_decay_EYE-try,2021.2.3,118.76672161759438,
right,1.0,0.75,0,0,0,0,0,3,0,3,0,1,8,18,8,,,,,,,,,,,,,,,1s,630.0680436020484,631.0683312850306,631.0602377220057,None,632.0603841480333,632.6599679070059,632.0603841480333,632.6599679070059,632.6519079930149,None,632.6519079930149,None,space,0.43349276401568204,632.6519079930149,None,0.5948,633.22532551107,None,,,,,,,DEC012,001,2022_Aug_22_1817,2-25_cond_decay_EYE-try,2021.2.3,118.76672161759438,
right,1.0,0.75,0,0,0,0,0,3,0,3,0,1,9,19,5,,,,,,,,,,,,,,,1s,634.2752916470636,635.2764895260334,635.2683491159696,None,636.2683663869975,636.4351505739614,636.2683663869975,636.4351505739614,636.4263159920229,None,636.4263159920229,None,space,0.46709884400479496,636.4263159920229,None,0.1606,637.0250284019858,None,,,,,,,DEC012,001,2022_Aug_22_1817,2-25_cond_decay_EYE-try,2021.2.3,118.76672161759438,
,,,,0,0,0,0,3,0,3,0,,,,,,,,,,,,,,,,,,,,,,,,,,,,,,,,,,,,,,,,,,,,,DEC012,001,2022_Aug_22_1817,2-25_cond_decay_EYE-try,2021.2.3,118.76672161759438,
,,,,0,0,0,0,,,,,,,,,,,,,,,,,,,,,,,,,,,,,,,,,,,,,,,,,,,637.9169553200481,None,637.9169553200481,None,637.9169553200481,None,DEC012,001,2022_Aug_22_1817,2-25_cond_decay_EYE-try,2021.2.3,118.76672161759438,
left,0.75,1.0,0,1,0,1,0,0,0,0,0,0,0,0,3,,,,,,,,,642.917278997018,None,642.917278997018,None,642.917278997018,None,3s,647.0935237290105,648.0936509890016,648.0855791950598,None,649.085338150966,651.5103717290331,649.085338150966,651.5103717290331,651.5103717290331,None,651.5103717290331,None,space,0.3750259990338236,651.5103717290331,None,2.4204,652.017627669964,None,,,,,,,DEC012,001,2022_Aug_22_1817,2-25_cond_decay_EYE-try,2021.2.3,118.76672161759438,
right,0.75,1.0,1,1,0,1,0,0,0,0,0,0,1,1,6,,,,,,,,,,,,,,,3s,653.0758082970278,654.0774289920228,654.0681507859845,None,655.0682216470595,656.3771080910228,655.0682216470595,656.3771080910228,656.3771080910228,None,656.3771080910228,None,space,0.42829445702955127,656.3771080910228,None,1.308,656.9426685160724,None,,,,,,,DEC012,001,2022_Aug_22_1817,2-25_cond_decay_EYE-try,2021.2.3,118.76672161759438,
right,1.0,0.75,0,1,0,1,0,0,0,0,0,0,2,2,8,,,,,,,,,,,,,,,3s,657.9921679920517,658.993541984004,658.984957713983,None,659.9856553600403,660.3350123320706,659.9856553600403,660.3350123320706,660.3268615170382,None,660.3268615170382,None,space,0.5585769329918548,660.3268615170382,None,0.3462,661.0171094150282,None,,,,,,,DEC012,001,2022_Aug_22_1817,2-25_cond_decay_EYE-try,2021.2.3,118.76672161759438,
right,1.0,0.75,0,1,0,1,0,0,0,0,0,0,3,3,0,,,,,,,,,,,,,,,3s,662.0669871399878,663.0684548830613,663.0603217399912,None,664.0601024969947,664.8518842220074,664.0601024969947,664.8518842220074,664.8441983769881,None,664.8441983769881,None,space,0.8572796259541065,664.8441983769881,None,0.7885,665.8341845390387,None,,,,,,,DEC012,001,2022_Aug_22_1817,2-25_cond_decay_EYE-try,2021.2.3,118.76672161759438,
left,1.0,0.75,1,1,0,1,0,0,0,0,0,0,4,4,9,,,,,,,,,,,,,,,3s,666.8856602699962,667.8853623180185,667.877345554065,None,668.8772165779956,671.4350337870419,668.8772165779956,671.4350337870419,671.4350337870419,None,671.4350337870419,None,None,,671.4350337870419,None,2.5574,672.559310064069,None,,,,,,,DEC012,001,2022_Aug_22_1817,2-25_cond_decay_EYE-try,2021.2.3,118.76672161759438,
right,1.0,0.75,0,1,0,1,0,0,0,0,0,0,5,5,5,,,,,,,,,,,,,,,3s,673.6091372970259,674.610185344005,674.6019526270684,None,675.6017991669942,677.0441209659912,675.6017991669942,677.0441209659912,677.0441209659912,None,677.0441209659912,None,space,0.48941400507465005,677.0441209659912,None,1.4428,677.6674731880194,None,,,,,,,DEC012,001,2022_Aug_22_1817,2-25_cond_decay_EYE-try,2021.2.3,118.76672161759438,
right,1.0,0.75,0,1,0,1,0,0,0,0,0,0,6,6,4,,,,,,,,,,,,,,,3s,678.7175994500285,679.7183385429671,679.710649547982,None,680.7110204190249,681.4274901240133,680.7110204190249,681.4274901240133,681.4183933089953,None,681.4183933089953,None,space,0.3790146700339392,681.4183933089953,None,0.709,681.9274086210644,None,,,,,,,DEC012,001,2022_Aug_22_1817,2-25_cond_decay_EYE-try,2021.2.3,118.76672161759438,
left,0.75,1.0,0,1,0,1,0,0,0,0,0,0,7,7,1,,,,,,,,,,,,,,,3s,682.992221401073,683.9942702230765,683.9775549949845,None,684.9768691180507,685.2267859480344,684.9768691180507,685.2267859480344,685.2267859480344,None,685.2267859480344,None,space,0.45062439900357276,685.2267859480344,None,0.25,685.810952504049,None,,,,,,,DEC012,001,2022_Aug_22_1817,2-25_cond_decay_EYE-try,2021.2.3,118.76672161759438,
left,0.75,1.0,0,1,0,1,0,0,0,0,0,0,8,8,7,,,,,,,,,,,,,,,3s,686.8694175300188,687.869269503979,687.8604777720757,None,688.8609093490522,689.1768417790299,688.8609093490522,689.1768417790299,689.1768417790299,None,689.1768417790299,None,space,0.41255851194728166,689.1768417790299,None,0.3148,689.7261162149953,None,,,,,,,DEC012,001,2022_Aug_22_1817,2-25_cond_decay_EYE-try,2021.2.3,118.76672161759438,
left,0.75,1.0,0,1,0,1,0,0,0,0,0,0,9,9,2,,,,,,,,,,,,,,,3s,690.7762096179649,691.7777368960669,691.7685588590102,None,692.7686699080514,693.3439836939797,692.7686699080514,693.3439836939797,693.3361680139787,None,693.3361680139787,None,space,0.3492253959411755,693.3361680139787,None,0.5717,693.8175224190345,None,,,,,,,DEC012,001,2022_Aug_22_1817,2-25_cond_decay_EYE-try,2021.2.3,118.76672161759438,
right,1.0,0.75,0,1,0,1,0,0,0,0,0,1,0,10,8,,,,,,,,,,,,,,,3s,694.8760581690585,695.8774518040009,695.8606810549973,None,696.8691419130191,698.0611254089745,696.8691419130191,698.0611254089745,698.0611254089745,None,698.0611254089745,None,space,0.31229113694280386,698.0611254089745,None,1.1917,698.5094906630693,None,,,,,,,DEC012,001,2022_Aug_22_1817,2-25_cond_decay_EYE-try,2021.2.3,118.76672161759438,
left,1.0,0.75,1,1,0,1,0,0,0,0,0,1,1,11,9,,,,,,,,,,,,,,,3s,699.5596158860717,700.5606522629969,700.5525884120725,None,701.5527774860384,702.6942164020147,701.5527774860384,702.6942164020147,702.6942164020147,None,702.6942164020147,None,space,0.3992723450064659,702.6942164020147,None,1.1417,703.2258268650621,None,,,,,,,DEC012,001,2022_Aug_22_1817,2-25_cond_decay_EYE-try,2021.2.3,118.76672161759438,
left,0.75,1.0,0,1,0,1,0,0,0,0,0,1,2,12,7,,,,,,,,,,,,,,,3s,704.2763160719769,705.277925931965,705.2686822840478,None,706.2696185370442,706.560385592049,706.2696185370442,706.560385592049,706.560385592049,None,706.560385592049,None,space,0.4610278339823708,706.560385592049,None,0.2912,707.1591225069715,None,,,,,,,DEC012,001,2022_Aug_22_1817,2-25_cond_decay_EYE-try,2021.2.3,118.76672161759438,
right,1.0,0.75,0,1,0,1,0,0,0,0,0,1,3,13,4,,,,,,,,,,,,,,,3s,708.2180092970375,709.2188343689777,709.210794297047,None,710.2107763889944,711.2605135770282,710.2107763889944,711.2605135770282,711.2520467269933,None,711.2520467269933,None,space,0.32136487506795675,711.2520467269933,None,1.044,711.7098051940557,None,,,,,,,DEC012,001,2022_Aug_22_1817,2-25_cond_decay_EYE-try,2021.2.3,118.76672161759438,
left,0.75,1.0,0,1,0,1,0,0,0,0,0,1,4,14,2,,,,,,,,,,,,,,,3s,712.7678475510329,713.7687344009755,713.7605323760072,None,714.7603029339807,715.3274225729983,714.7603029339807,715.3274225729983,715.3193548420677,None,715.3193548420677,None,space,0.4700620980001986,715.3193548420677,None,0.5625,715.925904260017,None,,,,,,,DEC012,001,2022_Aug_22_1817,2-25_cond_decay_EYE-try,2021.2.3,118.76672161759438,
left,0.75,1.0,0,1,0,1,0,0,0,0,0,1,5,15,1,,,,,,,,,,,,,,,3s,716.9848155090585,717.9859109469689,717.9770480600419,None,718.9777109200368,720.8109721050132,718.9777109200368,720.8109721050132,720.8030319219688,None,720.8030319219688,None,space,0.5863768089329824,720.8030319219688,None,1.827,721.5262204440078,None,,,,,,,DEC012,001,2022_Aug_22_1817,2-25_cond_decay_EYE-try,2021.2.3,118.76672161759438,
left,0.75,1.0,0,1,0,1,0,0,0,0,0,1,6,16,3,,,,,,,,,,,,,,,3s,722.5764338860754,723.5774623630568,723.5608601319836,None,724.5606417349773,726.2772568180226,724.5606417349773,726.2772568180226,726.2772568180226,None,726.2772568180226,None,space,0.39215599501039833,726.2772568180226,None,1.7121,726.8029014460044,None,,,,,,,DEC012,001,2022_Aug_22_1817,2-25_cond_decay_EYE-try,2021.2.3,118.76672161759438,
right,1.0,0.75,0,1,0,1,0,0,0,0,0,1,7,17,5,,,,,,,,,,,,,,,3s,727.8606290409807,728.8606359550031,728.8527471900452,None,729.8523651210126,730.2530178250745,729.8523651210126,730.2530178250745,730.2530178250745,None,730.2530178250745,None,space,0.9603926209965721,730.2530178250745,None,0.3965,731.3511450180085,None,,,,,,,DEC012,001,2022_Aug_22_1817,2-25_cond_decay_EYE-try,2021.2.3,118.76672161759438,
right,1.0,0.75,0,1,0,1,0,0,0,0,0,1,8,18,0,,,,,,,,,,,,,,,3s,732.4014068819815,733.402585552074,733.3860866980394,735.6945166700752,734.3862455210183,734.702907791012,734.3862455210183,734.702907791012,734.702907791012,None,734.702907791012,None,None,,734.702907791012,None,0.3096,735.8269944289932,None,,,,,,,DEC012,001,2022_Aug_22_1817,2-25_cond_decay_EYE-try,2021.2.3,118.76672161759438,
right,0.75,1.0,1,1,0,1,0,0,0,0,0,1,9,19,6,,,,,,,,,,,,,,,3s,736.8770611360669,737.8777124680346,737.8699640040286,None,738.8693895280594,740.4772872820031,738.8693895280594,740.4772872820031,740.4772872820031,None,740.4772872820031,None,space,0.28811787196900696,740.4772872820031,None,1.6049,740.90142456803,None,,,,,,,DEC012,001,2022_Aug_22_1817,2-25_cond_decay_EYE-try,2021.2.3,118.76672161759438,
,,,,1,0,1,0,0,0,0,0,,,,,,,,,,,,,,,,,,,,,,,,,,,,,,,,,,,,,,,,,,,,,DEC012,001,2022_Aug_22_1817,2-25_cond_decay_EYE-try,2021.2.3,118.76672161759438,
left,0.75,1.0,0,1,0,1,0,1,0,1,0,0,0,0,2,,,,,,,,,741.7930464970414,None,741.7930464970414,None,741.7930464970414,None,1s,743.6767181470059,744.6775078360224,744.6696779699996,None,745.6691370250192,746.4279876200017,745.6691370250192,746.4279876200017,746.4279876200017,None,746.4279876200017,None,space,0.3214308809256181,746.4279876200017,None,0.7578,746.8847394380718,None,,,,,,,DEC012,001,2022_Aug_22_1817,2-25_cond_decay_EYE-try,2021.2.3,118.76672161759438,
right,1.0,0.75,0,1,0,1,0,1,0,1,0,0,1,1,3,,,,,,,,,,,,,,,1s,747.9432791600702,748.9444337349851,748.9274529300164,None,749.928252342972,750.6532371409703,749.928252342972,750.6532371409703,750.6532371409703,None,750.6532371409703,None,space,0.3121777919586748,750.6532371409703,None,0.7244,751.1015659109689,None,,,,,,,DEC012,001,2022_Aug_22_1817,2-25_cond_decay_EYE-try,2021.2.3,118.76672161759438,
left,0.75,1.0,0,1,0,1,0,1,0,1,0,0,2,2,0,,,,,,,,,,,,,,,1s,752.1604035469936,753.1613965759752,753.1534757229965,None,754.1528981419979,754.377938029007,754.1528981419979,754.377938029007,754.369954406051,None,754.369954406051,None,space,0.3555451820138842,754.369954406051,None,0.2185,754.8605076170061,None,,,,,,,DEC012,001,2022_Aug_22_1817,2-25_cond_decay_EYE-try,2021.2.3,118.76672161759438,
left,0.75,1.0,0,1,0,1,0,1,0,1,0,0,3,3,8,,,,,,,,,,,,,,,1s,755.9102486560587,756.9114827320445,756.9024905890692,None,757.9033001770731,758.7281722360058,757.9033001770731,758.7281722360058,758.719547776971,None,758.719547776971,None,space,0.28587412100750953,758.719547776971,None,0.8213,759.143627693993,None,,,,,,,DEC012,001,2022_Aug_22_1817,2-25_cond_decay_EYE-try,2021.2.3,118.76672161759438,
left,1.0,0.75,1,1,0,1,0,1,0,1,0,0,4,4,4,,,,,,,,,,,,,,,1s,760.1951199900359,761.1948914880631,761.1869079429889,None,762.1859984060284,763.1779037429951,762.1859984060284,763.1779037429951,763.1779037429951,None,763.1779037429951,None,space,0.4915796209825203,763.1779037429951,None,0.991,763.8019102329854,None,,,,,,,DEC012,001,2022_Aug_22_1817,2-25_cond_decay_EYE-try,2021.2.3,118.76672161759438,
left,0.75,1.0,0,1,0,1,0,1,0,1,0,0,5,5,6,,,,,,,,,,,,,,,1s,764.8515477570472,765.8531070810277,765.8448528370354,None,766.8449129740475,767.3366821400123,766.8449129740475,767.3366821400123,767.3284409319749,None,767.3284409319749,None,space,0.4769835430197418,767.3284409319749,None,0.4875,767.9363048049854,None,,,,,,,DEC012,001,2022_Aug_22_1817,2-25_cond_decay_EYE-try,2021.2.3,118.76672161759438,
right,1.0,0.75,0,1,0,1,0,1,0,1,0,0,6,6,7,,,,,,,,,,,,,,,1s,769.0020991399651,770.0029090950266,769.9946288040373,None,770.9949116830248,771.3199082249776,770.9949116830248,771.3199082249776,771.3199082249776,None,771.3199082249776,None,space,0.5895130659919232,771.3199082249776,None,0.3204,772.0436237090034,None,,,,,,,DEC012,001,2022_Aug_22_1817,2-25_cond_decay_EYE-try,2021.2.3,118.76672161759438,
left,0.75,1.0,0,1,0,1,0,1,0,1,0,0,7,7,1,,,,,,,,,,,,,,,1s,773.1019106430467,774.1033682610141,774.09448113502,None,775.0947898470331,776.0616981090279,775.0947898470331,776.0616981090279,776.0616981090279,None,776.0616981090279,None,space,0.543747714953497,776.0616981090279,None,0.9666,776.7360868890537,None,,,,,,,DEC012,001,2022_Aug_22_1817,2-25_cond_decay_EYE-try,2021.2.3,118.76672161759438,
right,1.0,0.75,0,1,0,1,0,1,0,1,0,0,8,8,9,,,,,,,,,,,,,,,1s,777.8020144429756,778.8032082159771,778.7944167869864,None,779.7869132380001,780.2448502780171,779.7869132380001,780.2448502780171,780.2448502780171,None,780.2448502780171,None,space,0.5205694260075688,780.2448502780171,None,0.4547,780.9017003260087,None,,,,,,,DEC012,001,2022_Aug_22_1817,2-25_cond_decay_EYE-try,2021.2.3,118.76672161759438,
right,0.75,1.0,1,1,0,1,0,1,0,1,0,0,9,9,5,,,,,,,,,,,,,,,1s,781.9532188139856,782.952926537022,782.945196817047,None,783.9445566660725,784.2699042779859,783.9445566660725,784.2699042779859,784.2699042779859,None,784.2699042779859,None,space,0.3835122640011832,784.2699042779859,None,0.3247,784.7940120190615,None,,,,,,,DEC012,001,2022_Aug_22_1817,2-25_cond_decay_EYE-try,2021.2.3,118.76672161759438,
left,0.75,1.0,0,1,0,1,0,1,0,1,0,1,0,10,8,,,,,,,,,,,,,,,1s,785.845167207066,786.8448329790263,786.8370408170158,None,787.8369470230537,788.0779481399804,787.8369470230537,788.0779481399804,788.0779481399804,None,788.0779481399804,None,None,,788.0779481399804,None,0.2367,789.20220706705,None,,,,,,,DEC012,001,2022_Aug_22_1817,2-25_cond_decay_EYE-try,2021.2.3,118.76672161759438,
right,1.0,0.75,0,1,0,1,0,1,0,1,0,1,1,11,2,,,,,,,,,,,,,,,1s,790.2598967170343,791.2619268459966,791.2533498670673,None,792.2531171010341,792.4204107010737,792.2531171010341,792.4204107010737,792.4204107010737,None,792.4204107010737,None,space,0.4810727589065209,792.4204107010737,None,0.167,793.0357270700624,None,,,,,,,DEC012,001,2022_Aug_22_1817,2-25_cond_decay_EYE-try,2021.2.3,118.76672161759438,
right,1.0,0.75,0,1,0,1,0,1,0,1,0,1,2,12,7,,,,,,,,,,,,,,,1s,794.0853268810315,795.0868379250169,795.0779065829702,None,796.077939779032,796.3538254540181,796.077939779032,796.3538254540181,796.3448507919675,None,796.3448507919675,None,space,0.4206370241008699,796.3448507919675,None,0.2682,796.9020475479774,None,,,,,,,DEC012,001,2022_Aug_22_1817,2-25_cond_decay_EYE-try,2021.2.3,118.76672161759438,
left,0.75,1.0,0,1,0,1,0,1,0,1,0,1,3,13,1,,,,,,,,,,,,,,,1s,797.9533360509668,798.9535195339704,798.9455012209946,None,799.9454504840542,800.894957237062,799.9454504840542,800.894957237062,800.894957237062,None,800.894957237062,None,space,0.3184669059701264,800.894957237062,None,0.9462,801.3450235300697,None,,,,,,,DEC012,001,2022_Aug_22_1817,2-25_cond_decay_EYE-try,2021.2.3,118.76672161759438,
left,1.0,0.75,1,1,0,1,0,1,0,1,0,1,4,14,4,,,,,,,,,,,,,,,1s,802.4017494049622,803.4036105750129,803.3955277460627,None,804.395628607017,805.253223065054,804.395628607017,805.253223065054,805.2453468730673,None,805.2453468730673,None,space,0.7760780840180814,805.2453468730673,None,0.8528,806.1610742510529,None,,,,,,,DEC012,001,2022_Aug_22_1817,2-25_cond_decay_EYE-try,2021.2.3,118.76672161759438,
right,1.0,0.75,0,1,0,1,0,1,0,1,0,1,5,15,3,,,,,,,,,,,,,,,1s,807.2188165700063,808.2197412090609,808.2118253189838,None,809.2119669360109,810.2116327610565,809.2119669360109,810.2116327610565,810.2116327610565,None,810.2116327610565,None,space,0.4338665429968387,810.2116327610565,None,0.9983,810.7772621860495,None,,,,,,,DEC012,001,2022_Aug_22_1817,2-25_cond_decay_EYE-try,2021.2.3,118.76672161759438,
left,0.75,1.0,0,1,0,1,0,1,0,1,0,1,6,16,6,,,,,,,,,,,,,,,1s,811.8356565480353,812.8368103529792,812.8288581620436,None,813.8285804570187,814.8206669030478,813.8285804570187,814.8206669030478,814.811871740967,None,814.811871740967,None,space,0.6095480580115691,814.811871740967,None,0.9861,815.5604049490066,None,,,,,,,DEC012,001,2022_Aug_22_1817,2-25_cond_decay_EYE-try,2021.2.3,118.76672161759438,
right,1.0,0.75,0,1,0,1,0,1,0,1,0,1,7,17,9,,,,,,,,,,,,,,,1s,816.6116887889802,817.6115620880155,817.6037032300374,None,818.6033416769933,819.0705659600208,818.6033416769933,819.0705659600208,819.0615885050502,None,819.0615885050502,None,space,0.4479052680544555,819.0615885050502,None,0.4598,819.6437270439928,None,,,,,,,DEC012,001,2022_Aug_22_1817,2-25_cond_decay_EYE-try,2021.2.3,118.76672161759438,
right,0.75,1.0,1,1,0,1,0,1,0,1,0,1,8,18,5,,,,,,,,,,,,,,,1s,820.7025166030508,821.7031675010221,821.6864992789924,None,822.6874455549987,822.9117149870144,822.6874455549987,822.9117149870144,822.9117149870144,None,822.9117149870144,None,space,0.42171294591389596,822.9117149870144,None,0.2205,823.4690947330091,None,,,,,,,DEC012,001,2022_Aug_22_1817,2-25_cond_decay_EYE-try,2021.2.3,118.76672161759438,
left,0.75,1.0,0,1,0,1,0,1,0,1,0,1,9,19,0,,,,,,,,,,,,,,,1s,824.5274478510255,825.5292079569772,825.5200098140631,None,826.5206710390048,827.3454175790539,826.5206710390048,827.3454175790539,827.3374104569666,None,827.3374104569666,None,space,0.38002820999827236,827.3374104569666,None,0.8183,827.8526796730002,None,,,,,,,DEC012,001,2022_Aug_22_1817,2-25_cond_decay_EYE-try,2021.2.3,118.76672161759438,
,,,,1,0,1,0,1,0,1,0,,,,,,,,,,,,,,,,,,,,,,,,,,,,,,,,,,,,,,,,,,,,,DEC012,001,2022_Aug_22_1817,2-25_cond_decay_EYE-try,2021.2.3,118.76672161759438,
right,1.0,0.75,0,1,0,1,0,2,0,2,0,0,0,0,6,,,,,,,,,828.743969185045,None,828.743969185045,None,828.743969185045,None,10s,832.7192166759633,833.7203495380236,833.7036419590004,None,834.7040687659755,835.0367987359641,834.7040687659755,835.0367987359641,835.0367987359641,None,835.0367987359641,None,None,,835.0367987359641,None,0.3337,836.1607179050334,None,,,,,,,DEC012,001,2022_Aug_22_1817,2-25_cond_decay_EYE-try,2021.2.3,118.76672161759438,
left,0.75,1.0,0,1,0,1,0,2,0,2,0,0,1,1,4,,,,,,,,,,,,,,,10s,837.2125170420622,838.2126504220068,838.2039841830265,None,839.2040984809864,842.8958599630278,839.2040984809864,842.8958599630278,842.8958599630278,None,842.8958599630278,None,None,,842.8958599630278,None,3.6899,844.0110336340731,None,,,,,,,DEC012,001,2022_Aug_22_1817,2-25_cond_decay_EYE-try,2021.2.3,118.76672161759438,
right,0.75,1.0,1,1,0,1,0,2,0,2,0,0,2,2,2,,,,,,,,,,,,,,,10s,845.0695709320717,846.0703068149742,846.05378607905,None,847.0538424800616,852.3707623239607,847.0538424800616,852.3707623239607,852.3707623239607,None,852.3707623239607,None,space,0.44266208505723625,852.3707623239607,None,5.3155,852.9526790559758,None,,,,,,,DEC012,001,2022_Aug_22_1817,2-25_cond_decay_EYE-try,2021.2.3,118.76672161759438,
left,0.75,1.0,0,1,0,1,0,2,0,2,0,0,3,3,8,,,,,,,,,,,,,,,10s,854.0108185589779,855.0118057270302,854.9960467109922,None,855.9958507290576,860.3960927299922,855.9958507290576,860.3960927299922,860.3960927299922,None,860.3960927299922,None,None,,860.3960927299922,None,4.3953,861.5196167529793,None,,,,,,,DEC012,001,2022_Aug_22_1817,2-25_cond_decay_EYE-try,2021.2.3,118.76672161759438,
right,1.0,0.75,0,1,0,1,0,2,0,2,0,0,4,4,7,,,,,,,,,,,,,,,10s,862.569624405005,863.5710313770687,863.5540476910537,None,864.5619751920458,867.4624011480482,864.5619751920458,867.4624011480482,867.4544045020593,None,867.4544045020593,None,space,0.47903834807220846,867.4544045020593,None,2.8983,868.0693010849645,None,,,,,,,DEC012,001,2022_Aug_22_1817,2-25_cond_decay_EYE-try,2021.2.3,118.76672161759438,
left,0.75,1.0,0,1,0,1,0,2,0,2,0,0,5,5,3,,,,,,,,,,,,,,,10s,869.1275835790439,870.1288397280732,870.1210428850027,None,871.1208944460377,879.1628068690188,871.1208944460377,879.1628068690188,879.1628068690188,None,879.1628068690188,None,space,0.24261475796811283,879.1628068690188,None,8.0385,879.5376242920756,None,,,,,,,DEC012,001,2022_Aug_22_1817,2-25_cond_decay_EYE-try,2021.2.3,118.76672161759438,
left,0.75,1.0,0,1,0,1,0,2,0,2,0,0,6,6,1,,,,,,,,,,,,,,,10s,880.5949328970164,881.5958202990005,881.5878699950408,None,882.5876449500211,882.8872468239861,882.5876449500211,882.8872468239861,882.8789166400675,883.8788005330134,882.8789166400675,883.8788005330134,None,,882.8789166400675,883.8788005330134,0.2955,884.0114508559927,None,,,,,,,DEC012,001,2022_Aug_22_1817,2-25_cond_decay_EYE-try,2021.2.3,118.76672161759438,
right,1.0,0.75,0,1,0,1,0,2,0,2,0,0,7,7,9,,,,,,,,,,,,,,,10s,885.0619201010559,886.0627474960638,886.0537972680759,None,887.0544216319686,895.1956526869908,887.0544216319686,895.1956526869908,895.1956526869908,None,895.1956526869908,None,space,0.3537782420171425,895.1956526869908,None,8.1387,895.6860833900282,None,,,,,,,DEC012,001,2022_Aug_22_1817,2-25_cond_decay_EYE-try,2021.2.3,118.76672161759438,
right,1.0,0.75,0,1,0,1,0,2,0,2,0,0,8,8,5,,,,,,,,,,,,,,,10s,896.736647763988,897.7378083360381,897.72155522299,None,898.7213907589903,904.2463781640399,898.7213907589903,904.2463781640399,904.2463781640399,None,904.2463781640399,None,space,0.24712553399149328,904.2463781640399,None,5.5218,904.6282194600208,None,,,,,,,DEC012,001,2022_Aug_22_1817,2-25_cond_decay_EYE-try,2021.2.3,118.76672161759438,
right,1.0,0.75,0,1,0,1,0,2,0,2,0,0,9,9,0,,,,,,,,,,,,,,,10s,905.6795704630204,906.6794632009696,906.6711086640134,None,907.6712230109842,912.0379396220669,907.6712230109842,912.0379396220669,912.0379396220669,None,912.0379396220669,None,space,0.4155739229172468,912.0379396220669,None,4.3661,912.5867130609695,None,,,,,,,DEC012,001,2022_Aug_22_1817,2-25_cond_decay_EYE-try,2021.2.3,118.76672161759438,
right,0.75,1.0,1,1,0,1,0,2,0,2,0,1,0,10,2,,,,,,,,,,,,,,,10s,913.6363701600349,914.6381981919985,914.629852490034,None,915.6291487719864,924.2542667640373,915.6291487719864,924.2542667640373,924.2542667640373,None,924.2542667640373,None,None,,924.2542667640373,None,8.6236,925.3788764270721,None,,,,,,,DEC012,001,2022_Aug_22_1817,2-25_cond_decay_EYE-try,2021.2.3,118.76672161759438,
right,1.0,0.75,0,1,0,1,0,2,0,2,0,1,1,11,7,,,,,,,,,,,,,,,10s,926.4283712269971,927.429323420045,927.4213040739996,None,928.4126985080075,932.0051948360633,928.4126985080075,932.0051948360633,932.0128009059699,None,932.0128009059699,None,space,0.5206378310685977,932.0128009059699,None,3.592,932.6706186770461,None,,,,,,,DEC012,001,2022_Aug_22_1817,2-25_cond_decay_EYE-try,2021.2.3,118.76672161759438,
right,1.0,0.75,0,1,0,1,0,2,0,2,0,1,2,12,5,,,,,,,,,,,,,,,10s,933.7281405180693,934.7293588430621,934.7129307499854,None,935.7218316410435,940.2129818949616,935.7218316410435,940.2129818949616,940.205007874989,None,940.205007874989,None,space,0.5284353829920292,940.205007874989,None,4.4845,940.8703483080026,None,,,,,,,DEC012,001,2022_Aug_22_1817,2-25_cond_decay_EYE-try,2021.2.3,118.76672161759438,
left,0.75,1.0,0,1,0,1,0,2,0,2,0,1,3,13,8,,,,,,,,,,,,,,,10s,941.9286299360683,942.9295173720457,942.9214842540678,None,943.9218522750307,944.3221258639824,943.9218522750307,944.3221258639824,944.3129861670313,945.3132648119936,944.3129861670313,945.3132648119936,None,,944.3129861670313,945.3132648119936,0.397,945.445164298988,None,,,,,,,DEC012,001,2022_Aug_22_1817,2-25_cond_decay_EYE-try,2021.2.3,118.76672161759438,
left,0.75,1.0,0,1,0,1,0,2,0,2,0,1,4,14,4,,,,,,,,,,,,,,,10s,946.4951498410664,947.4971526020672,947.4885897609638,None,948.4885520460084,952.0804001360666,948.4885520460084,952.0804001360666,952.0804001360666,None,952.0804001360666,None,space,0.33304800500627607,952.0804001360666,None,3.5919,952.5453308990691,None,,,,,,,DEC012,001,2022_Aug_22_1817,2-25_cond_decay_EYE-try,2021.2.3,118.76672161759438,
right,1.0,0.75,0,1,0,1,0,2,0,2,0,1,5,15,9,,,,,,,,,,,,,,,10s,953.6040289760567,954.6048900909955,954.5966822990449,None,955.5964868749725,955.8638260830194,955.5964868749725,955.8638260830194,955.8638260830194,956.8629172990331,955.8638260830194,956.8629172990331,None,,955.8638260830194,956.8629172990331,0.2675,956.9956508070463,None,,,,,,,DEC012,001,2022_Aug_22_1817,2-25_cond_decay_EYE-try,2021.2.3,118.76672161759438,
left,0.75,1.0,0,1,0,1,0,2,0,2,0,1,6,16,3,,,,,,,,,,,,,,,10s,958.0538600609871,959.0551927479682,959.046374093974,None,960.0381953270407,963.5047565370332,960.0381953270407,963.5047565370332,963.5047565370332,None,963.5047565370332,None,space,0.03674955596216023,963.5047565370332,None,3.4615,963.67843549198,None,,,,,,,DEC012,001,2022_Aug_22_1817,2-25_cond_decay_EYE-try,2021.2.3,118.76672161759438,
right,1.0,0.75,0,1,0,1,0,2,0,2,0,1,7,17,0,,,,,,,,,,,,,,,10s,964.736801246996,965.7385937720537,965.721733281971,None,966.7216837999877,969.5051376139745,966.7216837999877,969.5051376139745,969.5051376139745,None,969.5051376139745,None,space,0.38028851500712335,969.5051376139745,None,2.7827,970.0205624720547,None,,,,,,,DEC012,001,2022_Aug_22_1817,2-25_cond_decay_EYE-try,2021.2.3,118.76672161759438,
left,0.75,1.0,0,1,0,1,0,2,0,2,0,1,8,18,1,,,,,,,,,,,,,,,10s,971.0791250980692,972.0802161070751,972.0713591480162,None,973.071830525063,973.4467035389971,973.071830525063,973.4467035389971,973.4467035389971,None,973.4467035389971,None,space,0.4787569750333205,973.4467035389971,None,0.372,974.0620337880682,None,,,,,,,DEC012,001,2022_Aug_22_1817,2-25_cond_decay_EYE-try,2021.2.3,118.76672161759438,
left,1.0,0.75,1,1,0,1,0,2,0,2,0,1,9,19,6,,,,,,,,,,,,,,,10s,975.1207957600709,976.1222483670572,976.1137653900078,None,977.1133470990462,984.9306184400339,977.1133470990462,984.9306184400339,984.9215413690545,None,984.9215413690545,None,space,0.4119063130347058,984.9215413690545,None,7.8104,985.463659754023,None,,,,,,,DEC012,001,2022_Aug_22_1817,2-25_cond_decay_EYE-try,2021.2.3,118.76672161759438,
,,,,1,0,1,0,2,0,2,0,,,,,,,,,,,,,,,,,,,,,,,,,,,,,,,,,,,,,,,,,,,,,DEC012,001,2022_Aug_22_1817,2-25_cond_decay_EYE-try,2021.2.3,118.76672161759438,
left,0.75,1.0,0,1,0,1,0,3,0,3,0,0,0,0,3,,,,,,,,,986.3624516429845,None,986.3624516429845,None,986.3624516429845,None,5s,989.9892161940224,990.9886754220352,990.9800077429973,None,991.9805705250474,992.8133984029992,991.9805705250474,992.8133984029992,992.8133984029992,None,992.8133984029992,None,None,,992.8133984029992,None,0.8303,993.9377626889618,None,,,,,,,DEC012,001,2022_Aug_22_1817,2-25_cond_decay_EYE-try,2021.2.3,118.76672161759438,
left,0.75,1.0,0,1,0,1,0,3,0,3,0,0,1,1,4,,,,,,,,,,,,,,,5s,994.9875963469967,995.9892307560658,995.9800375479972,None,996.980101497029,998.2637915500673,996.980101497029,998.2637915500673,998.2637915500673,None,998.2637915500673,None,space,0.4056551930261776,998.2637915500673,None,1.2823,998.8037637170637,None,,,,,,,DEC012,001,2022_Aug_22_1817,2-25_cond_decay_EYE-try,2021.2.3,118.76672161759438,
right,1.0,0.75,0,1,0,1,0,3,0,3,0,0,2,2,5,,,,,,,,,,,,,,,5s,999.8539923400385,1000.8553814850748,1000.8468626519898,None,1001.846978674992,1005.5137649349635,1001.846978674992,1005.5137649349635,1005.5056875960436,None,1005.5056875960436,None,space,0.41980608098674566,1005.5056875960436,None,3.6611,1006.0623698970303,None,,,,,,,DEC012,001,2022_Aug_22_1817,2-25_cond_decay_EYE-try,2021.2.3,118.76672161759438,
right,1.0,0.75,0,1,0,1,0,3,0,3,0,0,3,3,8,,,,,,,,,,,,,,,5s,1007.1122032690328,1008.1139982560417,1008.1060355950613,None,1009.1053444930585,1011.7557333160657,1009.1053444930585,1011.7557333160657,1011.7557333160657,None,1011.7557333160657,None,space,0.5377118929754943,1011.7557333160657,None,2.6496,1012.4296671260381,None,,,,,,,DEC012,001,2022_Aug_22_1817,2-25_cond_decay_EYE-try,2021.2.3,118.76672161759438,
left,1.0,0.75,1,1,0,1,0,3,0,3,0,0,4,4,0,,,,,,,,,,,,,,,5s,1013.4875481040217,1014.4892138660653,1014.4724491420202,None,1015.4720576159889,1016.2473724890733,1015.4720576159889,1016.2473724890733,1016.2551614349941,None,1016.2551614349941,None,space,0.814303460996598,1016.2551614349941,None,0.7761,1017.2050032949774,None,,,,,,,DEC012,001,2022_Aug_22_1817,2-25_cond_decay_EYE-try,2021.2.3,118.76672161759438,
left,0.75,1.0,0,1,0,1,0,3,0,3,0,0,5,5,6,,,,,,,,,,,,,,,5s,1018.2554463540437,1019.2559407410445,1019.2477301589679,None,1020.246842204011,1023.2223937590607,1020.246842204011,1023.2223937590607,1023.2223937590607,None,1023.2223937590607,None,space,0.33504451799672097,1023.2223937590607,None,2.9738,1023.6893859379925,None,,,,,,,DEC012,001,2022_Aug_22_1817,2-25_cond_decay_EYE-try,2021.2.3,118.76672161759438,
right,1.0,0.75,0,1,0,1,0,3,0,3,0,0,6,6,7,,,,,,,,,,,,,,,5s,1024.754032151075,1025.7561454169918,1025.7474407700356,None,1026.7477372720605,1029.6894613320474,1026.7477372720605,1029.6894613320474,1029.6894613320474,None,1029.6894613320474,None,space,0.3480719019426033,1029.6894613320474,None,2.9397,1030.1710295620142,None,,,,,,,DEC012,001,2022_Aug_22_1817,2-25_cond_decay_EYE-try,2021.2.3,118.76672161759438,
right,1.0,0.75,0,1,0,1,0,3,0,3,0,0,7,7,9,,,,,,,,,,,,,,,5s,1031.2212525960058,1032.2220082960557,1032.2141743060201,None,1033.2141405199654,1033.5638536490733,1033.2141405199654,1033.5638536490733,1033.5638536490733,None,1033.5638536490733,None,space,0.7695965729653835,1033.5638536490733,None,0.3491,1034.4644085170003,None,,,,,,,DEC012,001,2022_Aug_22_1817,2-25_cond_decay_EYE-try,2021.2.3,118.76672161759438,
right,0.75,1.0,1,1,0,1,0,3,0,3,0,0,8,8,1,,,,,,,,,,,,,,,5s,1035.5141813340597,1036.5143100629793,1036.5054392430466,None,1037.5056455570739,1041.7976130020106,1037.5056455570739,1041.7976130020106,1041.7976130020106,None,1041.7976130020106,None,space,0.6078273300081491,1041.7976130020106,None,4.2887,1042.5382256769808,None,,,,,,,DEC012,001,2022_Aug_22_1817,2-25_cond_decay_EYE-try,2021.2.3,118.76672161759438,
left,0.75,1.0,0,1,0,1,0,3,0,3,0,0,9,9,2,,,,,,,,,,,,,,,5s,1043.588124284055,1044.5897332750028,1044.580600943067,None,1045.5813472180162,1049.5889101150678,1045.5813472180162,1049.5889101150678,1049.5809877050342,None,1049.5809877050342,None,space,0.7364404980326071,1049.5809877050342,None,4.0046,1050.4481413110625,None,,,,,,,DEC012,001,2022_Aug_22_1817,2-25_cond_decay_EYE-try,2021.2.3,118.76672161759438,
right,1.0,0.75,0,1,0,1,0,3,0,3,0,1,0,10,8,,,,,,,,,,,,,,,5s,1051.5127163080033,1052.5148981190287,1052.5062343240716,None,1053.5056435640436,1053.9563386350637,1053.5056435640436,1053.9563386350637,1053.947680787067,1054.9476600739872,1053.947680787067,1054.9476600739872,None,,1053.947680787067,1054.9476600739872,0.4444,1055.0797765030293,None,,,,,,,DEC012,001,2022_Aug_22_1817,2-25_cond_decay_EYE-try,2021.2.3,118.76672161759438,
left,0.75,1.0,0,1,0,1,0,3,0,3,0,1,1,11,4,,,,,,,,,,,,,,,5s,1056.138013178017,1057.1400750840548,1057.1305978250457,None,1058.1306095940527,1058.7896157000214,1058.1306095940527,1058.7896157000214,1058.7815105440095,None,1058.7815105440095,None,space,0.44803487905301154,1058.7815105440095,None,0.6539,1059.3636069539934,None,,,,,,,DEC012,001,2022_Aug_22_1817,2-25_cond_decay_EYE-try,2021.2.3,118.76672161759438,
left,0.75,1.0,0,1,0,1,0,3,0,3,0,1,2,12,6,,,,,,,,,,,,,,,5s,1060.4130385649623,1061.4146344270557,1061.406546683982,None,1062.4062466790201,1064.9811994619668,1062.4062466790201,1064.9811994619668,1064.9811994619668,None,1064.9811994619668,None,space,0.4323285829741508,1064.9811994619668,None,2.5737,1065.546977465041,None,,,,,,,DEC012,001,2022_Aug_22_1817,2-25_cond_decay_EYE-try,2021.2.3,118.76672161759438,
left,0.75,1.0,0,1,0,1,0,3,0,3,0,1,3,13,2,,,,,,,,,,,,,,,5s,1066.5896752419649,1067.589999782038,1067.5810969250742,None,1068.5813515919726,1071.2563754880102,1068.5813515919726,1071.2563754880102,1071.2563754880102,None,1071.2563754880102,None,space,0.3811666410183534,1071.2563754880102,None,2.6727,1071.7717013780493,None,,,,,,,DEC012,001,2022_Aug_22_1817,2-25_cond_decay_EYE-try,2021.2.3,118.76672161759438,
left,0.75,1.0,0,1,0,1,0,3,0,3,0,1,4,14,3,,,,,,,,,,,,,,,5s,1072.8298564750003,1073.831674200017,1073.8144505990203,None,1074.823416623054,1075.9811875160085,1074.823416623054,1075.9811875160085,1075.9733235440217,None,1075.9733235440217,None,space,0.6082097999751568,1075.9733235440217,None,1.1532,1076.7130389079684,None,,,,,,,DEC012,001,2022_Aug_22_1817,2-25_cond_decay_EYE-try,2021.2.3,118.76672161759438,
right,1.0,0.75,0,1,0,1,0,3,0,3,0,1,5,15,9,,,,,,,,,,,,,,,5s,1077.7719051690074,1078.7734022210352,1078.7648105290718,None,1079.7643310789717,1081.4816385590238,1079.7643310789717,1081.4816385590238,1081.4816385590238,None,1081.4816385590238,None,space,0.45983097597490996,1081.4816385590238,None,1.7153,1082.0796419939725,None,,,,,,,DEC012,001,2022_Aug_22_1817,2-25_cond_decay_EYE-try,2021.2.3,118.76672161759438,
right,1.0,0.75,0,1,0,1,0,3,0,3,0,1,6,16,5,,,,,,,,,,,,,,,5s,1083.1298118260456,1084.131273068022,1084.1231867760653,None,1085.1234730270226,1088.0316953170113,1085.1234730270226,1088.0316953170113,1088.0316953170113,None,1088.0316953170113,None,space,0.397822581930086,1088.0316953170113,None,2.9078,1088.5635495829629,None,,,,,,,DEC012,001,2022_Aug_22_1817,2-25_cond_decay_EYE-try,2021.2.3,118.76672161759438,
right,1.0,0.75,0,1,0,1,0,3,0,3,0,1,7,17,7,,,,,,,,,,,,,,,5s,1089.613813658012,1090.615101614967,1090.606979883043,None,1091.6061321820598,1092.5479750060476,1091.6061321820598,1092.5479750060476,1092.5479750060476,1093.5485013109865,1092.5479750060476,1093.5485013109865,None,,1092.5479750060476,1093.5485013109865,0.9431,1093.6817028190708,None,,,,,,,DEC012,001,2022_Aug_22_1817,2-25_cond_decay_EYE-try,2021.2.3,118.76672161759438,
right,0.75,1.0,1,1,0,1,0,3,0,3,0,1,8,18,1,,,,,,,,,,,,,,,5s,1094.730473080068,1095.731227803044,1095.7229142950382,None,1096.7231033130083,1098.5648260960588,1096.7231033130083,1098.5648260960588,1098.5648260960588,None,1098.5648260960588,None,space,0.44064248097129166,1098.5648260960588,None,1.8384,1099.1384042500285,None,,,,,,,DEC012,001,2022_Aug_22_1817,2-25_cond_decay_EYE-try,2021.2.3,118.76672161759438,
left,1.0,0.75,1,1,0,1,0,3,0,3,0,1,9,19,0,,,,,,,,,,,,,,,5s,1100.1883573940722,1101.189926363062,1101.1816316159675,None,1102.1817444789922,1104.2982201089617,1102.1817444789922,1104.2982201089617,1104.2982201089617,None,1104.2982201089617,None,space,0.4192320810398087,1104.2982201089617,None,2.1166,1104.854988822015,None,,,,,,,DEC012,001,2022_Aug_22_1817,2-25_cond_decay_EYE-try,2021.2.3,118.76672161759438,
,,,,1,0,1,0,3,0,3,0,,,,,,,,,,,,,,,,,,,,,,,,,,,,,,,,,,,,,,,,,,,,,DEC012,001,2022_Aug_22_1817,2-25_cond_decay_EYE-try,2021.2.3,118.76672161759438,
,,,,1,0,1,0,,,,,,,,,,,,,,,,,,,,,,,,,,,,,,,,,,,,,,,,,,,1105.7471853770548,None,1105.7471853770548,None,1105.7471853770548,None,DEC012,001,2022_Aug_22_1817,2-25_cond_decay_EYE-try,2021.2.3,118.76672161759438,
right,1.0,0.75,0,2,0,2,0,0,0,0,0,0,0,0,5,,,,,,,,,1110.746787248063,None,1110.746787248063,None,1110.746787248063,None,3s,1112.7056976379827,1113.7070158430142,1113.6978858860675,None,1114.6987832040759,1115.2979349349625,1114.6987832040759,1115.2979349349625,1115.2979349349625,None,1115.2979349349625,None,space,0.4435180379077792,1115.2979349349625,None,0.5988,1115.879951830022,None,,,,,,,DEC012,001,2022_Aug_22_1817,2-25_cond_decay_EYE-try,2021.2.3,118.76672161759438,
left,0.75,1.0,0,2,0,2,0,0,0,0,0,0,1,1,9,,,,,,,,,,,,,,,3s,1116.9389164950699,1117.9397478579776,1117.9314067460364,None,1118.9320395250106,1120.1150269520003,1118.9320395250106,1120.1150269520003,1120.106744752964,None,1120.106744752964,None,space,0.4107211329974234,1120.106744752964,None,1.182,1120.6486862399615,None,,,,,,,DEC012,001,2022_Aug_22_1817,2-25_cond_decay_EYE-try,2021.2.3,118.76672161759438,
left,1.0,0.75,1,2,0,2,0,0,0,0,0,0,2,2,7,,,,,,,,,,,,,,,3s,1121.7050273460336,1122.7070972210495,1122.6987413120223,None,1123.6986012760317,1125.1905483549926,1123.6986012760317,1125.1905483549926,1125.1905483549926,None,1125.1905483549926,None,space,0.3589182049036026,1125.1905483549926,None,1.4922,1125.6814996240428,None,,,,,,,DEC012,001,2022_Aug_22_1817,2-25_cond_decay_EYE-try,2021.2.3,118.76672161759438,
right,1.0,0.75,0,2,0,2,0,0,0,0,0,0,3,3,8,,,,,,,,,,,,,,,3s,1126.746868888964,1127.7487503499724,1127.740310046007,None,1128.7397123340052,1128.9401683110045,1128.7397123340052,1128.9401683110045,1128.9321723850444,None,1128.9321723850444,None,space,0.8653712628874928,1128.9321723850444,None,0.1941,1129.9302436370635,None,,,,,,,DEC012,001,2022_Aug_22_1817,2-25_cond_decay_EYE-try,2021.2.3,118.76672161759438,
right,0.75,1.0,1,2,0,2,0,0,0,0,0,0,4,4,3,,,,,,,,,,,,,,,3s,1130.9800904369913,1131.981818672968,1131.9730809850153,None,1132.9736009950284,1134.5318242100766,1132.9736009950284,1134.5318242100766,1134.523343930021,None,1134.523343930021,None,space,0.41812633292283863,1134.523343930021,None,1.553,1135.0740520210238,None,,,,,,,DEC012,001,2022_Aug_22_1817,2-25_cond_decay_EYE-try,2021.2.3,118.76672161759438,
left,0.75,1.0,0,2,0,2,0,0,0,0,0,0,5,5,0,,,,,,,,,,,,,,,3s,1136.131225108984,1137.131665908033,1137.1233834030572,None,1138.123215254047,1140.9408403279958,1138.123215254047,1140.9408403279958,1140.9408403279958,None,1140.9408403279958,None,space,0.36061543808318675,1140.9408403279958,None,2.8144,1141.4324451719876,None,,,,,,,DEC012,001,2022_Aug_22_1817,2-25_cond_decay_EYE-try,2021.2.3,118.76672161759438,
left,0.75,1.0,0,2,0,2,0,0,0,0,0,0,6,6,2,,,,,,,,,,,,,,,3s,1142.4906155620702,1143.4906685040332,1143.4820812650723,None,1144.482584577985,1144.6402985480381,1144.482584577985,1144.6402985480381,1144.6402985480381,None,1144.6402985480381,None,space,0.7091589269693941,1144.6402985480381,None,0.1566,1145.4892446990125,None,,,,,,,DEC012,001,2022_Aug_22_1817,2-25_cond_decay_EYE-try,2021.2.3,118.76672161759438,
right,1.0,0.75,0,2,0,2,0,0,0,0,0,0,7,7,1,,,,,,,,,,,,,,,3s,1146.5395875050453,1147.540670671966,1147.5235795880435,None,1148.5239781530108,1149.390367879998,1148.5239781530108,1149.390367879998,1149.390367879998,None,1149.390367879998,None,space,0.6231783529510722,1149.390367879998,None,0.8652,1150.1470824739663,None,,,,,,,DEC012,001,2022_Aug_22_1817,2-25_cond_decay_EYE-try,2021.2.3,118.76672161759438,
left,0.75,1.0,0,2,0,2,0,0,0,0,0,0,8,8,4,,,,,,,,,,,,,,,3s,1151.2058305520331,1152.2065753580537,1152.199051024043,None,1153.1983071319992,1156.1317314460175,1153.1983071319992,1156.1317314460175,1156.1237926670583,None,1156.1237926670583,None,space,0.45775457192212343,1156.1237926670583,None,2.9276,1156.7137723839842,None,,,,,,,DEC012,001,2022_Aug_22_1817,2-25_cond_decay_EYE-try,2021.2.3,118.76672161759438,
right,1.0,0.75,0,2,0,2,0,0,0,0,0,0,9,9,6,,,,,,,,,,,,,,,3s,1157.7644327019807,1158.7655463980045,1158.7574031910626,None,1159.7572626840556,1161.6151611090172,1159.7572626840556,1161.6151611090172,1161.6151611090172,None,1161.6151611090172,None,space,0.5503542289370671,1161.6151611090172,None,1.8568,1162.29889412201,None,,,,,,,DEC012,001,2022_Aug_22_1817,2-25_cond_decay_EYE-try,2021.2.3,118.76672161759438,
right,1.0,0.75,0,2,0,2,0,0,0,0,0,1,0,10,5,,,,,,,,,,,,,,,3s,1163.356109488057,1164.3572616680758,1164.3483785060234,None,1165.3489410500042,1167.9734206410358,1165.3489410500042,1167.9734206410358,1167.9655303420732,None,1167.9655303420732,None,space,0.47193356696516275,1167.9655303420732,None,2.6212,1168.5723008649657,None,,,,,,,DEC012,001,2022_Aug_22_1817,2-25_cond_decay_EYE-try,2021.2.3,118.76672161759438,
right,0.75,1.0,1,2,0,2,0,0,0,0,0,1,1,11,3,,,,,,,,,,,,,,,3s,1169.622597611975,1170.6243613810511,1170.6153790020617,None,1171.615252270014,1174.3571098350221,1171.615252270014,1174.3571098350221,1174.349416231038,None,1174.349416231038,None,space,0.5280483670067042,1174.349416231038,None,2.7383,1175.014743505977,None,,,,,,,DEC012,001,2022_Aug_22_1817,2-25_cond_decay_EYE-try,2021.2.3,118.76672161759438,
right,1.0,0.75,0,2,0,2,0,0,0,0,0,1,2,12,8,,,,,,,,,,,,,,,3s,1176.0647587460699,1177.0659932020353,1177.0570018700091,None,1178.057087830035,1180.007496219012,1178.057087830035,1180.007496219012,1179.9995779260062,None,1179.9995779260062,None,space,0.3899080699775368,1179.9995779260062,None,1.9458,1180.5224132840522,None,,,,,,,DEC012,001,2022_Aug_22_1817,2-25_cond_decay_EYE-try,2021.2.3,118.76672161759438,
left,0.75,1.0,0,2,0,2,0,0,0,0,0,1,3,13,0,,,,,,,,,,,,,,,3s,1181.581137574045,1182.5821599849733,1182.5656977340113,None,1183.5743024300318,1184.2818990210071,1183.5743024300318,1184.2818990210071,1184.2740707100602,None,1184.2740707100602,None,space,0.563408917048946,1184.2740707100602,None,0.7039,1184.972731916001,None,,,,,,,DEC012,001,2022_Aug_22_1817,2-25_cond_decay_EYE-try,2021.2.3,118.76672161759438,
left,0.75,1.0,0,2,0,2,0,0,0,0,0,1,4,14,2,,,,,,,,,,,,,,,3s,1186.0223868009634,1187.0242363259895,1187.0153010559734,None,1188.0158274460118,1188.2660195970675,1188.0158274460118,1188.2660195970675,1188.257003493025,None,1188.257003493025,None,space,0.4445197960594669,1188.257003493025,None,0.2455,1188.8317846989958,None,,,,,,,DEC012,001,2022_Aug_22_1817,2-25_cond_decay_EYE-try,2021.2.3,118.76672161759438,
left,0.75,1.0,0,2,0,2,0,0,0,0,0,1,5,15,9,,,,,,,,,,,,,,,3s,1189.8891203299863,1190.8910970480647,1190.8824951259885,None,1191.8827728769975,1193.182109222049,1191.8827728769975,1193.182109222049,1193.1741168369772,None,1193.1741168369772,None,space,0.32735378900542855,1193.1741168369772,None,1.2958,1193.6330082530621,None,,,,,,,DEC012,001,2022_Aug_22_1817,2-25_cond_decay_EYE-try,2021.2.3,118.76672161759438,
right,1.0,0.75,0,2,0,2,0,0,0,0,0,1,6,16,1,,,,,,,,,,,,,,,3s,1194.6899728920544,1195.6909191010054,1195.6830935509643,None,1196.6827802889748,1199.4823617989896,1196.6827802889748,1199.4823617989896,1199.474537870963,None,1199.474537870963,None,space,0.36294818692840636,1199.474537870963,None,2.7965,1199.9732764200307,None,,,,,,,DEC012,001,2022_Aug_22_1817,2-25_cond_decay_EYE-try,2021.2.3,118.76672161759438,
left,1.0,0.75,1,2,0,2,0,0,0,0,0,1,7,17,7,,,,,,,,,,,,,,,3s,1201.0316198610235,1202.0326279910514,1202.02426582505,None,1203.0246911799768,1205.9739073449746,1203.0246911799768,1205.9739073449746,1205.966106228996,None,1205.966106228996,None,space,0.3994353550951928,1205.966106228996,None,2.945,1206.4979556989856,None,,,,,,,DEC012,001,2022_Aug_22_1817,2-25_cond_decay_EYE-try,2021.2.3,118.76672161759438,
right,1.0,0.75,0,2,0,2,0,0,0,0,0,1,8,18,6,,,,,,,,,,,,,,,3s,1207.5563534370158,1208.5579520190367,1208.5493220679928,None,1209.5496049610665,1212.5243398729945,1209.5496049610665,1212.5243398729945,1212.5243398729945,None,1212.5243398729945,None,None,,1212.5243398729945,None,2.9723,1213.6479872569907,None,,,,,,,DEC012,001,2022_Aug_22_1817,2-25_cond_decay_EYE-try,2021.2.3,118.76672161759438,
left,0.75,1.0,0,2,0,2,0,0,0,0,0,1,9,19,4,,,,,,,,,,,,,,,3s,1214.7000304000685,1215.6998216060456,1215.6907446910627,None,1216.6914429710014,1216.9327602169942,1216.6914429710014,1216.9327602169942,1216.9327602169942,None,1216.9327602169942,None,None,,1216.9327602169942,None,0.2387,1218.0567204389954,None,,,,,,,DEC012,001,2022_Aug_22_1817,2-25_cond_decay_EYE-try,2021.2.3,118.76672161759438,
,,,,2,0,2,0,0,0,0,0,,,,,,,,,,,,,,,,,,,,,,,,,,,,,,,,,,,,,,,,,,,,,DEC012,001,2022_Aug_22_1817,2-25_cond_decay_EYE-try,2021.2.3,118.76672161759438,
right,0.75,1.0,1,2,0,2,0,1,0,1,0,0,0,0,9,,,,,,,,,1218.9481375020696,None,1218.9481375020696,None,1218.9481375020696,None,10s,1230.4650449450128,1231.4666776240338,1231.45796960406,None,1232.4582347190008,1239.0413338959916,1232.4582347190008,1239.0413338959916,1239.0333862539846,None,1239.0333862539846,None,space,0.2840991480043158,1239.0333862539846,None,6.5778,1239.4565957899904,None,,,,,,,DEC012,001,2022_Aug_22_1817,2-25_cond_decay_EYE-try,2021.2.3,118.76672161759438,
left,0.75,1.0,0,2,0,2,0,1,0,1,0,0,1,1,0,,,,,,,,,,,,,,,10s,1240.5076991489623,1241.508334351005,1241.500066180015,None,1242.5001626439625,1251.124861318036,1242.5001626439625,1251.124861318036,1251.116707644076,None,1251.116707644076,None,space,0.43286211299709976,1251.116707644076,None,8.6204,1251.6817806400359,None,,,,,,,DEC012,001,2022_Aug_22_1817,2-25_cond_decay_EYE-try,2021.2.3,118.76672161759438,
right,1.0,0.75,0,2,0,2,0,1,0,1,0,0,2,2,5,,,,,,,,,,,,,,,10s,1252.7404789390275,1253.7414932140382,1253.7333239669679,None,1254.7332894969732,1261.0832216810668,1254.7332894969732,1261.0832216810668,1261.0752892809687,1262.0753575799754,1261.0752892809687,1262.0753575799754,None,,1261.0752892809687,1262.0753575799754,6.3479,1262.2064944510348,None,,,,,,,DEC012,001,2022_Aug_22_1817,2-25_cond_decay_EYE-try,2021.2.3,118.76672161759438,
left,1.0,0.75,1,2,0,2,0,1,0,1,0,0,3,3,8,,,,,,,,,,,,,,,10s,1263.2570915840333,1264.2581351019908,1264.249845072045,None,1265.2499519980047,1271.9332392200595,1265.2499519980047,1271.9332392200595,1271.9332392200595,None,1271.9332392200595,None,space,0.43231069401372224,1271.9332392200595,None,6.6801,1272.4992020720383,None,,,,,,,DEC012,001,2022_Aug_22_1817,2-25_cond_decay_EYE-try,2021.2.3,118.76672161759438,
right,1.0,0.75,0,2,0,2,0,1,0,1,0,0,4,4,1,,,,,,,,,,,,,,,10s,1273.5490575210424,1274.5501293530688,1274.5419929609634,None,1275.5419372160686,1280.4746934230207,1275.5419372160686,1280.4746934230207,1280.4746934230207,None,1280.4746934230207,None,None,,1280.4746934230207,None,4.9325,1281.5984334349632,None,,,,,,,DEC012,001,2022_Aug_22_1817,2-25_cond_decay_EYE-try,2021.2.3,118.76672161759438,
left,0.75,1.0,0,2,0,2,0,1,0,1,0,0,5,5,7,,,,,,,,,,,,,,,10s,1282.6572734559886,1283.65797616099,1283.650213520974,None,1284.6498868149938,1291.0171855749795,1284.6498868149938,1291.0171855749795,1291.0082071520155,1292.0088086549658,1291.0082071520155,1292.0088086549658,None,,1291.0082071520155,1292.0088086549658,6.3608,1292.1321900669718,None,,,,,,,DEC012,001,2022_Aug_22_1817,2-25_cond_decay_EYE-try,2021.2.3,118.76672161759438,
right,1.0,0.75,0,2,0,2,0,1,0,1,0,0,6,6,6,,,,,,,,,,,,,,,10s,1293.198810558999,1294.1998614430195,1294.191835294012,None,1295.1916862410726,1295.9673731080256,1295.1916862410726,1295.9673731080256,1295.9673731080256,None,1295.9673731080256,None,space,0.6061758729629219,1295.9673731080256,None,0.7722,1296.7077008680208,None,,,,,,,DEC012,001,2022_Aug_22_1817,2-25_cond_decay_EYE-try,2021.2.3,118.76672161759438,
right,0.75,1.0,1,2,0,2,0,1,0,1,0,0,7,7,4,,,,,,,,,,,,,,,10s,1297.7569298490416,1298.7583369159838,1298.750527043012,None,1299.7501753619872,1308.283271820983,1299.7501753619872,1308.283271820983,1308.2755617890507,None,1308.2755617890507,None,space,0.5939219680149108,1308.2755617890507,None,8.5269,1309.007533850032,None,,,,,,,DEC012,001,2022_Aug_22_1817,2-25_cond_decay_EYE-try,2021.2.3,118.76672161759438,
left,0.75,1.0,0,2,0,2,0,1,0,1,0,0,8,8,2,,,,,,,,,,,,,,,10s,1310.0573420090368,1311.0586257060058,1311.0502598900348,None,1312.0501884130063,1314.7002781250048,1312.0501884130063,1314.7002781250048,1314.6921606019605,None,1314.6921606019605,None,space,0.8973414809443057,1314.6921606019605,None,2.6462,1315.7238440139918,None,,,,,,,DEC012,001,2022_Aug_22_1817,2-25_cond_decay_EYE-try,2021.2.3,118.76672161759438,
left,0.75,1.0,0,2,0,2,0,1,0,1,0,0,9,9,3,,,,,,,,,,,,,,,10s,1316.775541246985,1317.7753306489903,1317.7673071880126,None,1318.7676219750429,1327.8253104489995,1318.7676219750429,1327.8253104489995,1327.8253104489995,None,1327.8253104489995,None,None,,1327.8253104489995,None,9.0525,1328.9493275979767,None,,,,,,,DEC012,001,2022_Aug_22_1817,2-25_cond_decay_EYE-try,2021.2.3,118.76672161759438,
left,0.75,1.0,0,2,0,2,0,1,0,1,0,1,0,10,7,,,,,,,,,,,,,,,10s,1330.0004635610385,1331.0004205070436,1330.9922756740125,None,1331.992160540074,1340.859517161036,1331.992160540074,1340.859517161036,1340.859517161036,None,1340.859517161036,None,space,0.3299515639664605,1340.859517161036,None,8.8661,1341.3256433010101,None,,,,,,,DEC012,001,2022_Aug_22_1817,2-25_cond_decay_EYE-try,2021.2.3,118.76672161759438,
left,1.0,0.75,1,2,0,2,0,1,0,1,0,1,1,11,8,,,,,,,,,,,,,,,10s,1342.3746173509862,1343.3761743570212,1343.3588111060672,None,1344.359414519975,1346.9508152049966,1344.359414519975,1346.9508152049966,1346.9508152049966,None,1346.9508152049966,None,None,,1346.9508152049966,None,2.5912,1348.0746709030354,None,,,,,,,DEC012,001,2022_Aug_22_1817,2-25_cond_decay_EYE-try,2021.2.3,118.76672161759438,
right,1.0,0.75,0,2,0,2,0,1,0,1,0,1,2,12,5,,,,,,,,,,,,,,,10s,1349.124355972046,1350.1262595900334,1350.1170574360294,None,1351.117639723001,1352.0586806930369,1351.117639723001,1352.0586806930369,1352.0506418349687,None,1352.0506418349687,None,space,0.5868490660795942,1352.0506418349687,None,0.9381,1352.7744414489716,None,,,,,,,DEC012,001,2022_Aug_22_1817,2-25_cond_decay_EYE-try,2021.2.3,118.76672161759438,
right,1.0,0.75,0,2,0,2,0,1,0,1,0,1,3,13,9,,,,,,,,,,,,,,,10s,1353.8246717640432,1354.8259680169867,1354.8179883210687,None,1355.8177631190047,1357.6510626070667,1355.8177631190047,1357.6510626070667,1357.6424318120116,1358.6421667849645,1357.6424318120116,1358.6421667849645,None,,1357.6424318120116,1358.6421667849645,1.8277,1358.7744166030316,None,,,,,,,DEC012,001,2022_Aug_22_1817,2-25_cond_decay_EYE-try,2021.2.3,118.76672161759438,
right,0.75,1.0,1,2,0,2,0,1,0,1,0,1,4,14,4,,,,,,,,,,,,,,,10s,1359.8332530630287,1360.834065331961,1360.8176966810133,None,1361.8178061819635,1367.3676226020325,1361.8178061819635,1367.3676226020325,1367.3676226020325,None,1367.3676226020325,None,space,0.39795599796343595,1367.3676226020325,None,5.5424,1367.8997621380258,None,,,,,,,DEC012,001,2022_Aug_22_1817,2-25_cond_decay_EYE-try,2021.2.3,118.76672161759438,
left,0.75,1.0,0,2,0,2,0,1,0,1,0,1,5,15,0,,,,,,,,,,,,,,,10s,1368.9499427709961,1369.9507693169871,1369.942683893023,None,1370.9425126870628,1380.3591261620168,1370.9425126870628,1380.3591261620168,1380.3591261620168,None,1380.3591261620168,None,space,0.4783741789869964,1380.3591261620168,None,9.4151,1380.9746307219611,None,,,,,,,DEC012,001,2022_Aug_22_1817,2-25_cond_decay_EYE-try,2021.2.3,118.76672161759438,
left,0.75,1.0,0,2,0,2,0,1,0,1,0,1,6,16,2,,,,,,,,,,,,,,,10s,1382.0247811350273,1383.0257704190444,1383.0180856339866,None,1384.017518287059,1385.417506903992,1384.017518287059,1385.417506903992,1385.417506903992,None,1385.417506903992,None,space,0.46799541800282896,1385.417506903992,None,1.3965,1386.0246066480177,None,,,,,,,DEC012,001,2022_Aug_22_1817,2-25_cond_decay_EYE-try,2021.2.3,118.76672161759438,
left,0.75,1.0,0,2,0,2,0,1,0,1,0,1,7,17,3,,,,,,,,,,,,,,,10s,1387.0761551529868,1388.0759945410537,1388.0673370569712,None,1389.068191044964,1390.2010907450458,1389.068191044964,1390.2010907450458,1390.2010907450458,None,1390.2010907450458,None,space,0.5644188299775124,1390.2010907450458,None,1.1299,1390.9003826660337,None,,,,,,,DEC012,001,2022_Aug_22_1817,2-25_cond_decay_EYE-try,2021.2.3,118.76672161759438,
right,1.0,0.75,0,2,0,2,0,1,0,1,0,1,8,18,1,,,,,,,,,,,,,,,10s,1391.9583919120487,1392.959987321985,1392.9513331169728,None,1393.9514421339845,1403.7851984259905,1393.9514421339845,1403.7851984259905,1403.7851984259905,None,1403.7851984259905,None,space,0.4363009079825133,1403.7851984259905,None,9.8294,1404.3584325260017,None,,,,,,,DEC012,001,2022_Aug_22_1817,2-25_cond_decay_EYE-try,2021.2.3,118.76672161759438,
right,1.0,0.75,0,2,0,2,0,1,0,1,0,1,9,19,6,,,,,,,,,,,,,,,10s,1405.4163580730092,1406.418242949061,1406.4013367430307,None,1407.4013399489922,1414.5093408150133,1407.4013399489922,1414.5093408150133,1414.5093408150133,None,1414.5093408150133,None,None,,1414.5093408150133,None,7.1065,1415.6339166590478,None,,,,,,,DEC012,001,2022_Aug_22_1817,2-25_cond_decay_EYE-try,2021.2.3,118.76672161759438,
,,,,2,0,2,0,1,0,1,0,,,,,,,,,,,,,,,,,,,,,,,,,,,,,,,,,,,,,,,,,,,,,DEC012,001,2022_Aug_22_1817,2-25_cond_decay_EYE-try,2021.2.3,118.76672161759438,
right,1.0,0.75,0,2,0,2,0,2,0,2,0,0,0,0,5,,,,,,,,,1416.5252323190216,None,1416.5252323190216,None,1416.5252323190216,None,1s,1425.3082823220175,1426.3101834730478,1426.2933702149894,None,1427.2928320100764,1427.5430226069875,1427.2928320100764,1427.5430226069875,1427.5430226069875,None,1427.5430226069875,None,space,0.5104784049326554,1427.5430226069875,None,0.2499,1428.192131655058,None,,,,,,,DEC012,001,2022_Aug_22_1817,2-25_cond_decay_EYE-try,2021.2.3,118.76672161759438,
right,1.0,0.75,0,2,0,2,0,2,0,2,0,0,1,1,4,,,,,,,,,,,,,,,1s,1429.2502400400117,1430.2521610320546,1430.242751776008,None,1431.243127158028,1431.7013084139908,1431.243127158028,1431.7013084139908,1431.69328863197,None,1431.69328863197,None,space,0.32020705903414637,1431.69328863197,None,0.4566,1432.1501630150015,None,,,,,,,DEC012,001,2022_Aug_22_1817,2-25_cond_decay_EYE-try,2021.2.3,118.76672161759438,
right,1.0,0.75,0,2,0,2,0,2,0,2,0,0,2,2,9,,,,,,,,,,,,,,,1s,1433.2006789490115,1434.2011894839816,1434.1934985260013,None,1435.1937299469719,1435.9682072669966,1435.1937299469719,1435.9682072669966,1435.960264921072,None,1435.960264921072,None,space,0.3973260970087722,1435.960264921072,None,0.7726,1436.4919079400133,None,,,,,,,DEC012,001,2022_Aug_22_1817,2-25_cond_decay_EYE-try,2021.2.3,118.76672161759438,
left,0.75,1.0,0,2,0,2,0,2,0,2,0,0,3,3,6,,,,,,,,,,,,,,,1s,1437.542597103049,1438.5435430540238,1438.5346788190072,None,1439.5346065399935,1439.8100053929957,1439.5346065399935,1439.8100053929957,1439.8100053929957,None,1439.8100053929957,None,space,0.3955672060837969,1439.8100053929957,None,0.2732,1440.3417481400538,None,,,,,,,DEC012,001,2022_Aug_22_1817,2-25_cond_decay_EYE-try,2021.2.3,118.76672161759438,
right,0.75,1.0,1,2,0,2,0,2,0,2,0,0,4,4,7,,,,,,,,,,,,,,,1s,1441.4000335129676,1442.4019401649712,1442.3939418019727,None,1443.3929915759945,1443.6017434600508,1443.3929915759945,1443.6017434600508,1443.6017434600508,None,1443.6017434600508,None,space,0.3557577170431614,1443.6017434600508,None,0.2088,1444.0918301020283,None,,,,,,,DEC012,001,2022_Aug_22_1817,2-25_cond_decay_EYE-try,2021.2.3,118.76672161759438,
right,1.0,0.75,0,2,0,2,0,2,0,2,0,0,5,5,1,,,,,,,,,,,,,,,1s,1445.1423431120347,1446.1439397700597,1446.1353289720137,None,1447.134977000067,1447.3352169169812,1447.134977000067,1447.3352169169812,1447.3352169169812,None,1447.3352169169812,None,space,0.4303018159698695,1447.3352169169812,None,0.2004,1447.9006637539715,None,,,,,,,DEC012,001,2022_Aug_22_1817,2-25_cond_decay_EYE-try,2021.2.3,118.76672161759438,
left,0.75,1.0,0,2,0,2,0,2,0,2,0,0,6,6,8,,,,,,,,,,,,,,,1s,1448.9587762380252,1449.9599697380327,1449.9518382700626,None,1450.9515384190017,1451.559988182038,1450.9515384190017,1451.559988182038,1451.5519072270254,None,1451.5519072270254,None,space,0.34966038598213345,1451.5519072270254,None,0.6081,1452.034460281022,None,,,,,,,DEC012,001,2022_Aug_22_1817,2-25_cond_decay_EYE-try,2021.2.3,118.76672161759438,
left,0.75,1.0,0,2,0,2,0,2,0,2,0,0,7,7,2,,,,,,,,,,,,,,,1s,1453.0841960510006,1454.0847939590458,1454.0766363060102,None,1455.0769761069678,1455.6849300710019,1455.0769761069678,1455.6849300710019,1455.67705827998,None,1455.67705827998,None,space,0.39245041203685105,1455.67705827998,None,0.6065,1456.2091736829607,None,,,,,,,DEC012,001,2022_Aug_22_1817,2-25_cond_decay_EYE-try,2021.2.3,118.76672161759438,
right,1.0,0.75,0,2,0,2,0,2,0,2,0,0,8,8,3,,,,,,,,,,,,,,,1s,1457.2591726579703,1458.2598190479912,1458.2519574300386,None,1459.2516632570187,1459.6272026450606,1459.2516632570187,1459.6272026450606,1459.6182676430326,None,1459.6182676430326,None,space,0.2833270620321855,1459.6182676430326,None,0.3703,1460.0338885569945,None,,,,,,,DEC012,001,2022_Aug_22_1817,2-25_cond_decay_EYE-try,2021.2.3,118.76672161759438,
left,1.0,0.75,1,2,0,2,0,2,0,2,0,0,9,9,0,,,,,,,,,,,,,,,1s,1461.092950424063,1462.093802902964,1462.0768560579745,None,1463.0774308469845,1463.8098793929676,1463.0774308469845,1463.8098793929676,1463.8098793929676,None,1463.8098793929676,None,space,0.4516330240294337,1463.8098793929676,None,0.7305,1464.3936184589984,None,,,,,,,DEC012,001,2022_Aug_22_1817,2-25_cond_decay_EYE-try,2021.2.3,118.76672161759438,
right,1.0,0.75,0,2,0,2,0,2,0,2,0,1,0,10,3,,,,,,,,,,,,,,,1s,1465.4586736779893,1466.46053651697,1466.4436305080308,None,1467.4434343409957,1468.018995875027,1467.4434343409957,1468.018995875027,1468.018995875027,None,1468.018995875027,None,space,0.41049487399868667,1468.018995875027,None,0.5705,1468.5601102060173,None,,,,,,,DEC012,001,2022_Aug_22_1817,2-25_cond_decay_EYE-try,2021.2.3,118.76672161759438,
left,0.75,1.0,0,2,0,2,0,2,0,2,0,1,1,11,2,,,,,,,,,,,,,,,1s,1469.6172813290032,1470.6187349130632,1470.6108612020034,None,1471.6106756289955,1471.9767370810732,1471.6106756289955,1471.9767370810732,1471.9687534660334,None,1471.9687534660334,None,space,0.3408216479001567,1471.9687534660334,None,0.3617,1472.442196267075,None,,,,,,,DEC012,001,2022_Aug_22_1817,2-25_cond_decay_EYE-try,2021.2.3,118.76672161759438,
right,1.0,0.75,0,2,0,2,0,2,0,2,0,1,2,12,9,,,,,,,,,,,,,,,1s,1473.5007586680586,1474.5022610520246,1474.4937256050762,None,1475.494084554026,1476.0771344080567,1475.494084554026,1476.0771344080567,1476.06925571803,None,1476.06925571803,None,space,0.4563148251036182,1476.06925571803,None,0.5754,1476.659305759007,None,,,,,,,DEC012,001,2022_Aug_22_1817,2-25_cond_decay_EYE-try,2021.2.3,118.76672161759438,
right,0.75,1.0,1,2,0,2,0,2,0,2,0,1,3,13,7,,,,,,,,,,,,,,,1s,1477.708953666035,1478.7107051829807,1478.7025243300013,None,1479.7023739580764,1479.9103558789939,1479.7023739580764,1479.9103558789939,1479.9103558789939,None,1479.9103558789939,None,space,0.39124144590459764,1479.9103558789939,None,0.2054,1480.4342612860491,None,,,,,,,DEC012,001,2022_Aug_22_1817,2-25_cond_decay_EYE-try,2021.2.3,118.76672161759438,
right,1.0,0.75,0,2,0,2,0,2,0,2,0,1,4,14,1,,,,,,,,,,,,,,,1s,1481.4838499570033,1482.4855536250398,1482.4774870150723,None,1483.4767561940243,1483.9442341630347,1483.4767561940243,1483.9442341630347,1483.9350728640566,None,1483.9350728640566,None,space,0.4944254510337487,1483.9350728640566,None,0.4628,1484.5605443089735,None,,,,,,,DEC012,001,2022_Aug_22_1817,2-25_cond_decay_EYE-try,2021.2.3,118.76672161759438,
left,1.0,0.75,1,2,0,2,0,2,0,2,0,1,5,15,0,,,,,,,,,,,,,,,1s,1485.6255457840161,1486.627642789972,1486.6104995020432,None,1487.6108312190045,1487.7688213710207,1487.6108312190045,1487.7688213710207,1487.7688213710207,None,1487.7688213710207,None,space,0.588693899102509,1487.7688213710207,None,0.158,1488.4921876220033,None,,,,,,,DEC012,001,2022_Aug_22_1817,2-25_cond_decay_EYE-try,2021.2.3,118.76672161759438,
left,0.75,1.0,0,2,0,2,0,2,0,2,0,1,6,16,5,,,,,,,,,,,,,,,1s,1489.5429522689665,1490.5439856830053,1490.5358535969863,None,1491.5355432879878,1491.7189194309758,1491.5355432879878,1491.7189194309758,1491.7101686099777,None,1491.7101686099777,None,space,0.42341649101581424,1491.7101686099777,None,0.1785,1492.267998844036,None,,,,,,,DEC012,001,2022_Aug_22_1817,2-25_cond_decay_EYE-try,2021.2.3,118.76672161759438,
left,0.75,1.0,0,2,0,2,0,2,0,2,0,1,7,17,8,,,,,,,,,,,,,,,1s,1493.3182500239927,1494.3184323690366,1494.3102459650254,None,1495.3110885689966,1496.0941709600156,1495.3110885689966,1496.0941709600156,1496.0851821269607,None,1496.0851821269607,None,space,0.3843360230093822,1496.0851821269607,None,0.7785,1496.6092608170584,None,,,,,,,DEC012,001,2022_Aug_22_1817,2-25_cond_decay_EYE-try,2021.2.3,118.76672161759438,
right,1.0,0.75,0,2,0,2,0,2,0,2,0,1,8,18,4,,,,,,,,,,,,,,,1s,1497.6593288640724,1498.6608910929644,1498.6527219429845,None,1499.6522406269796,1500.3687640549615,1499.6522406269796,1500.3687640549615,1500.360814640997,None,1500.360814640997,None,space,0.6366882140282542,1500.360814640997,None,0.7146,1501.1344549349742,None,,,,,,,DEC012,001,2022_Aug_22_1817,2-25_cond_decay_EYE-try,2021.2.3,118.76672161759438,
left,0.75,1.0,0,2,0,2,0,2,0,2,0,1,9,19,6,,,,,,,,,,,,,,,1s,1502.1859882980352,1503.185297004995,1503.1773638139712,None,1504.1774157040054,1504.6694015620742,1504.1774157040054,1504.6694015620742,1504.6694015620742,None,1504.6694015620742,None,space,0.37610733695328236,1504.6694015620742,None,0.488,1505.1772202040302,None,,,,,,,DEC012,001,2022_Aug_22_1817,2-25_cond_decay_EYE-try,2021.2.3,118.76672161759438,
,,,,2,0,2,0,2,0,2,0,,,,,,,,,,,,,,,,,,,,,,,,,,,,,,,,,,,,,,,,,,,,,DEC012,001,2022_Aug_22_1817,2-25_cond_decay_EYE-try,2021.2.3,118.76672161759438,
left,0.75,1.0,0,2,0,2,0,3,0,3,0,0,0,0,0,,,,,,,,,1506.0756442460697,None,1506.0756442460697,None,1506.0756442460697,None,5s,1514.993192896014,1515.9938669239637,1515.9856260759989,None,1516.9855548400665,1519.7107414259808,1516.9855548400665,1519.7107414259808,1519.7027455630014,None,1519.7027455630014,None,space,0.518761090002954,1519.7027455630014,None,2.7202,1520.359483325039,None,,,,,,,DEC012,001,2022_Aug_22_1817,2-25_cond_decay_EYE-try,2021.2.3,118.76672161759438,
right,1.0,0.75,0,2,0,2,0,3,0,3,0,0,1,1,5,,,,,,,,,,,,,,,5s,1521.4180426320527,1522.4192489379784,1522.4110735499999,None,1523.4106190489838,1526.5781022349838,1523.4106190489838,1526.5781022349838,1526.5692687990377,None,1526.5692687990377,None,space,0.3882474870188162,1526.5692687990377,None,3.1599,1527.0933226810303,None,,,,,,,DEC012,001,2022_Aug_22_1817,2-25_cond_decay_EYE-try,2021.2.3,118.76672161759438,
left,1.0,0.75,1,2,0,2,0,3,0,3,0,0,2,2,6,,,,,,,,,,,,,,,5s,1528.1515592039796,1529.1530818630708,1529.143873307039,None,1530.1446677109925,1532.8022729950026,1530.1446677109925,1532.8022729950026,1532.8022729950026,None,1532.8022729950026,None,space,0.36323348991572857,1532.8022729950026,None,2.6553,1533.3014778620563,None,,,,,,,DEC012,001,2022_Aug_22_1817,2-25_cond_decay_EYE-try,2021.2.3,118.76672161759438,
right,0.75,1.0,1,2,0,2,0,3,0,3,0,0,3,3,1,,,,,,,,,,,,,,,5s,1534.3599813900655,1535.3609762470005,1535.3523228010163,None,1536.3528921629768,1537.9946500000078,1536.3528921629768,1537.9946500000078,1537.9946500000078,None,1537.9946500000078,None,space,0.330940103973262,1537.9946500000078,None,1.6405,1538.459793237038,None,,,,,,,DEC012,001,2022_Aug_22_1817,2-25_cond_decay_EYE-try,2021.2.3,118.76672161759438,
left,0.75,1.0,0,2,0,2,0,3,0,3,0,0,4,4,9,,,,,,,,,,,,,,,5s,1539.5113842650317,1540.5116407499881,1540.5024029740598,None,1541.5031095250743,1544.0192994200625,1541.5031095250743,1544.0192994200625,1544.0192994200625,None,1544.0192994200625,None,space,0.3942077790852636,1544.0192994200625,None,2.515,1544.5510088490555,None,,,,,,,DEC012,001,2022_Aug_22_1817,2-25_cond_decay_EYE-try,2021.2.3,118.76672161759438,
right,1.0,0.75,0,2,0,2,0,3,0,3,0,0,5,5,4,,,,,,,,,,,,,,,5s,1545.6098096020287,1546.6108614540426,1546.6025717220036,None,1547.6024273970397,1549.9277133820578,1547.6024273970397,1549.9277133820578,1549.9196518909885,None,1549.9196518909885,None,space,0.365944349905476,1549.9196518909885,None,2.3243,1550.4181963329902,None,,,,,,,DEC012,001,2022_Aug_22_1817,2-25_cond_decay_EYE-try,2021.2.3,118.76672161759438,
left,0.75,1.0,0,2,0,2,0,3,0,3,0,0,6,6,7,,,,,,,,,,,,,,,5s,1551.468156720046,1552.469579613069,1552.4614915390266,None,1553.4613955300301,1553.7445640930673,1553.4613955300301,1553.7445640930673,1553.7365307180444,None,1553.7365307180444,None,space,0.4049883409170434,1553.7365307180444,None,0.2807,1554.2766416029772,None,,,,,,,DEC012,001,2022_Aug_22_1817,2-25_cond_decay_EYE-try,2021.2.3,118.76672161759438,
right,1.0,0.75,0,2,0,2,0,3,0,3,0,0,7,7,2,,,,,,,,,,,,,,,5s,1555.3351443280699,1556.3367747530574,1556.3279693630757,None,1557.3283602370648,1560.7946143019944,1557.3283602370648,1560.7946143019944,1560.786626300076,None,1560.786626300076,None,space,0.2909802629146725,1560.786626300076,None,3.4606,1561.2100524710258,None,,,,,,,DEC012,001,2022_Aug_22_1817,2-25_cond_decay_EYE-try,2021.2.3,118.76672161759438,
right,1.0,0.75,0,2,0,2,0,3,0,3,0,0,8,8,8,,,,,,,,,,,,,,,5s,1562.2603755020536,1563.2618090889882,1563.253572095069,None,1564.253278917051,1567.1108721490018,1564.253278917051,1567.1108721490018,1567.1108721490018,None,1567.1108721490018,None,space,0.3266501820180565,1567.1108721490018,None,2.8579,1567.5694720270112,None,,,,,,,DEC012,001,2022_Aug_22_1817,2-25_cond_decay_EYE-try,2021.2.3,118.76672161759438,
left,0.75,1.0,0,2,0,2,0,3,0,3,0,0,9,9,3,,,,,,,,,,,,,,,5s,1568.6353378780186,1569.6366189660039,1569.6201111869887,None,1570.62035719899,1574.9362786220154,1570.62035719899,1574.9362786220154,1574.9362786220154,None,1574.9362786220154,None,space,0.3333426680183038,1574.9362786220154,None,4.3121,1575.401855589007,None,,,,,,,DEC012,001,2022_Aug_22_1817,2-25_cond_decay_EYE-try,2021.2.3,118.76672161759438,
left,0.75,1.0,0,2,0,2,0,3,0,3,0,1,0,10,7,,,,,,,,,,,,,,,5s,1576.4522463129833,1577.453136813012,1577.4443723990116,None,1578.444914584048,1580.7451893819962,1578.444914584048,1580.7451893819962,1580.7451893819962,None,1580.7451893819962,None,None,,1580.7451893819962,None,2.3005,1581.868771992973,None,,,,,,,DEC012,001,2022_Aug_22_1817,2-25_cond_decay_EYE-try,2021.2.3,118.76672161759438,
right,1.0,0.75,0,2,0,2,0,3,0,3,0,1,1,11,8,,,,,,,,,,,,,,,5s,1582.9267597449943,1583.9283059319714,1583.92017643305,None,1584.920072723995,1586.570348749985,1584.920072723995,1586.570348749985,1586.561284321011,None,1586.561284321011,None,space,0.3802308849990368,1586.561284321011,None,1.6467,1587.0766344580334,None,,,,,,,DEC012,001,2022_Aug_22_1817,2-25_cond_decay_EYE-try,2021.2.3,118.76672161759438,
right,0.75,1.0,1,2,0,2,0,3,0,3,0,1,2,12,1,,,,,,,,,,,,,,,5s,1588.126950078993,1589.1285251290537,1589.1203763179947,None,1590.1198768230388,1590.778447513003,1590.1198768230388,1590.778447513003,1590.778447513003,None,1590.778447513003,None,None,,1590.778447513003,None,0.6585,1591.9016633720603,None,,,,,,,DEC012,001,2022_Aug_22_1817,2-25_cond_decay_EYE-try,2021.2.3,118.76672161759438,
right,1.0,0.75,0,2,0,2,0,3,0,3,0,1,3,13,4,,,,,,,,,,,,,,,5s,1592.960601786035,1593.9619249840034,1593.9529287629994,None,1594.9532342000166,1596.9866533180466,1594.9532342000166,1596.9866533180466,1596.9783426519716,None,1596.9783426519716,None,space,0.6271737760398537,1596.9783426519716,None,2.0266,1597.7441298570484,None,,,,,,,DEC012,001,2022_Aug_22_1817,2-25_cond_decay_EYE-try,2021.2.3,118.76672161759438,
left,0.75,1.0,0,2,0,2,0,3,0,3,0,1,4,14,9,,,,,,,,,,,,,,,5s,1598.7955897659995,1599.7952426359989,1599.7872984230053,None,1600.7868858120637,1603.2029936970212,1600.7868858120637,1603.2029936970212,1603.2029936970212,None,1603.2029936970212,None,space,0.3145288350060582,1603.2029936970212,None,2.4128,1603.6524147599703,None,,,,,,,DEC012,001,2022_Aug_22_1817,2-25_cond_decay_EYE-try,2021.2.3,118.76672161759438,
right,1.0,0.75,0,2,0,2,0,3,0,3,0,1,5,15,2,,,,,,,,,,,,,,,5s,1604.7104651280679,1605.7117811660282,1605.7036160740536,None,1606.7036296030274,1609.6696740770712,1606.7036296030274,1609.6696740770712,1609.6696740770712,None,1609.6696740770712,None,space,0.3119228590512648,1609.6696740770712,None,2.9672,1610.1185830640607,None,,,,,,,DEC012,001,2022_Aug_22_1817,2-25_cond_decay_EYE-try,2021.2.3,118.76672161759438,
left,0.75,1.0,0,2,0,2,0,3,0,3,0,1,6,16,3,,,,,,,,,,,,,,,5s,1611.1775063619716,1612.1785383770475,1612.1705130140763,None,1613.1697679819772,1616.019908908056,1613.1697679819772,1616.019908908056,1616.019908908056,None,1616.019908908056,None,space,0.7376107000745833,1616.019908908056,None,2.8504,1616.894145279075,None,,,,,,,DEC012,001,2022_Aug_22_1817,2-25_cond_decay_EYE-try,2021.2.3,118.76672161759438,
