attn_cue,left_ob,right_ob,congruent,runs.thisRepN,runs.thisTrialN,runs.thisN,runs.thisIndex,blocks.thisRepN,blocks.thisTrialN,blocks.thisN,blocks.thisIndex,trials.thisRepN,trials.thisTrialN,trials.thisN,trials.thisIndex,welcome.started,welcome.stopped,text_2.started,text_2.stopped,init_key_resp.keys,init_key_resp.rt,init_key_resp.started,init_key_resp.stopped,text_3.started,text_3.stopped,text_4.started,text_4.stopped,text_5.started,text_5.stopped,block_num,texter.started,texter.stopped,cross.started,cross.stopped,left_star.started,left_star.stopped,right_star.started,right_star.stopped,left_2.started,left_2.stopped,right_2.started,right_2.stopped,key_resp.keys,key_resp.rt,key_resp.started,key_resp.stopped,Rand Tim,text.started,text.stopped,end.started,end.stopped,text_6.started,text_6.stopped,text_7.started,text_7.stopped,participant,session,date,expName,psychopyVersion,frameRate,
,,,,,,,,,,,,,,,,144.5767856980674,None,144.5767856980674,None,space,4.07099647866562,144.5767856980674,None,,,,,,,,,,,,,,,,,,,,,,,,,,,,,,,,,DEC024,001,2022_Dec_02_1638,2-25_cond_decay_EYE-try,2021.2.3,119.30590777686994,
right,1.0,0.75,0,0,0,0,0,0,0,0,0,0,0,0,4,,,,,,,,,148.66847113706172,None,148.66847113706172,None,148.66847113706172,None,3s,152.82648112997413,153.82822521496564,153.81976394122466,None,154.8200986031443,156.51197638409212,154.8200986031443,156.51197638409212,156.51197638409212,None,156.51197638409212,None,space,0.5022867666557431,156.51197638409212,None,1.6913,157.1524209980853,None,,,,,,,DEC024,001,2022_Dec_02_1638,2-25_cond_decay_EYE-try,2021.2.3,119.30590777686994,
right,1.0,0.75,0,0,0,0,0,0,0,0,0,0,1,1,6,,,,,,,,,,,,,,,3s,158.23570831818506,159.2370472610928,159.22770921187475,None,160.22773132985458,161.3028417751193,160.22773132985458,161.3028417751193,161.3028417751193,None,161.3028417751193,None,space,0.45094611775130033,161.3028417751193,None,1.072,161.8783030891791,None,,,,,,,DEC024,001,2022_Dec_02_1638,2-25_cond_decay_EYE-try,2021.2.3,119.30590777686994,
left,1.0,0.75,1,0,0,0,0,0,0,0,0,0,2,2,3,,,,,,,,,,,,,,,3s,162.97695475490764,163.97807216783985,163.9618980619125,None,164.9611012339592,166.4030366372317,164.9611012339592,166.4030366372317,166.4030366372317,None,166.4030366372317,None,space,0.5696987840346992,166.4030366372317,None,1.4372,167.10183231020346,None,,,,,,,DEC024,001,2022_Dec_02_1638,2-25_cond_decay_EYE-try,2021.2.3,119.30590777686994,
left,0.75,1.0,0,0,0,0,0,0,0,0,0,0,3,3,5,,,,,,,,,,,,,,,3s,168.18626239011064,169.186855354812,169.17782735917717,None,170.17780742095783,173.01128246681765,170.17780742095783,173.01128246681765,173.01128246681765,None,173.01128246681765,None,space,0.5094994972459972,173.01128246681765,None,2.8303,173.64531762013212,None,,,,,,,DEC024,001,2022_Dec_02_1638,2-25_cond_decay_EYE-try,2021.2.3,119.30590777686994,
left,0.75,1.0,0,0,0,0,0,0,0,0,0,0,4,4,1,,,,,,,,,,,,,,,3s,174.74358035810292,175.744979491923,175.73678737320006,None,176.73683195514604,178.10388942994177,176.73683195514604,178.10388942994177,178.10388942994177,None,178.10388942994177,None,space,0.4088072283193469,178.10388942994177,None,1.3632,178.64362746523693,None,,,,,,,DEC024,001,2022_Dec_02_1638,2-25_cond_decay_EYE-try,2021.2.3,119.30590777686994,
right,1.0,0.75,0,0,0,0,0,0,0,0,0,0,5,5,8,,,,,,,,,,,,,,,3s,179.73560388805345,180.73710731603205,180.7284888299182,None,181.72831740183756,184.6452776012011,181.72831740183756,184.6452776012011,184.63660509791225,None,184.63660509791225,None,space,0.5525218928232789,184.63660509791225,None,2.9104,185.3187216441147,None,,,,,,,DEC024,001,2022_Dec_02_1638,2-25_cond_decay_EYE-try,2021.2.3,119.30590777686994,
right,1.0,0.75,0,0,0,0,0,0,0,0,0,0,6,6,9,,,,,,,,,,,,,,,3s,186.40300450380892,187.40378020517528,187.39530582586303,None,188.39531437214464,190.12852714490145,188.39531437214464,190.12852714490145,190.12852714490145,None,190.12852714490145,None,space,0.4606187609024346,190.12852714490145,None,1.729,190.7186209759675,None,,,,,,,DEC024,001,2022_Dec_02_1638,2-25_cond_decay_EYE-try,2021.2.3,119.30590777686994,
right,0.75,1.0,1,0,0,0,0,0,0,0,0,0,7,7,0,,,,,,,,,,,,,,,3s,191.8040759009309,192.80368740996346,192.79515118990093,None,193.79466317780316,194.05313405999914,193.79466317780316,194.05313405999914,194.05313405999914,None,194.05313405999914,None,space,0.7533673229627311,194.05313405999914,None,0.2591,194.9351808167994,None,,,,,,,DEC024,001,2022_Dec_02_1638,2-25_cond_decay_EYE-try,2021.2.3,119.30590777686994,
left,0.75,1.0,0,0,0,0,0,0,0,0,0,0,8,8,7,,,,,,,,,,,,,,,3s,196.02791427308694,197.0281269121915,197.02050296217203,None,198.0204950538464,199.2788859498687,198.0204950538464,199.2788859498687,199.27022018423304,None,199.27022018423304,None,space,0.48405670234933496,199.27022018423304,None,1.252,199.87853637896478,None,,,,,,,DEC024,001,2022_Dec_02_1638,2-25_cond_decay_EYE-try,2021.2.3,119.30590777686994,
right,1.0,0.75,0,0,0,0,0,0,0,0,0,0,9,9,2,,,,,,,,,,,,,,,3s,200.97753599006683,201.97854536306113,201.97020281292498,None,202.9701465209946,204.56990434322506,202.9701465209946,204.56990434322506,204.56236678082496,None,204.56236678082496,None,space,0.4348876648582518,204.56236678082496,None,1.5999,205.12783096916974,None,,,,,,,DEC024,001,2022_Dec_02_1638,2-25_cond_decay_EYE-try,2021.2.3,119.30590777686994,
right,1.0,0.75,0,0,0,0,0,0,0,0,0,1,0,10,6,,,,,,,,,,,,,,,3s,206.211074647028,207.21211436809972,207.20376363024116,None,208.2033341648057,209.6870633699,208.2033341648057,209.6870633699,209.67848814325407,None,209.67848814325407,None,space,0.47554651089012623,209.67848814325407,None,1.4774,210.27895613294095,None,,,,,,,DEC024,001,2022_Dec_02_1638,2-25_cond_decay_EYE-try,2021.2.3,119.30590777686994,
left,0.75,1.0,0,0,0,0,0,0,0,0,0,1,1,11,4,,,,,,,,,,,,,,,3s,211.37738614995033,212.3784619839862,212.3703374247998,None,213.370426800102,215.16260992083699,213.370426800102,215.16260992083699,215.15389601886272,None,215.15389601886272,None,space,0.39435260836035013,215.15389601886272,None,1.7867,215.677578182891,None,,,,,,,DEC024,001,2022_Dec_02_1638,2-25_cond_decay_EYE-try,2021.2.3,119.30590777686994,
right,1.0,0.75,0,0,0,0,0,0,0,0,0,1,2,12,9,,,,,,,,,,,,,,,3s,216.76951405685395,217.77029363717884,217.7532686800696,None,218.75335443625227,221.01191400224343,218.75335443625227,221.01191400224343,221.01191400224343,None,221.01191400224343,None,space,0.46718990709632635,221.01191400224343,None,2.2516,221.60416352795437,None,,,,,,,DEC024,001,2022_Dec_02_1638,2-25_cond_decay_EYE-try,2021.2.3,119.30590777686994,
right,0.75,1.0,1,0,0,0,0,0,0,0,0,1,3,13,0,,,,,,,,,,,,,,,3s,222.70294159511104,223.7033701990731,223.69602904981002,None,224.69611286604777,227.3540691351518,224.69611286604777,227.3540691351518,227.3540691351518,None,227.3540691351518,None,space,0.3669500229880214,227.3540691351518,None,2.6577,227.84567796019837,None,,,,,,,DEC024,001,2022_Dec_02_1638,2-25_cond_decay_EYE-try,2021.2.3,119.30590777686994,
left,0.75,1.0,0,0,0,0,0,0,0,0,0,1,4,14,1,,,,,,,,,,,,,,,3s,228.94487663405016,229.94570487784222,229.93725277902558,None,230.93686338094994,231.99516010889784,230.93686338094994,231.99516010889784,231.99516010889784,None,231.99516010889784,None,space,0.5697676157578826,231.99516010889784,None,1.056,232.69383554393426,None,,,,,,,DEC024,001,2022_Dec_02_1638,2-25_cond_decay_EYE-try,2021.2.3,119.30590777686994,
left,1.0,0.75,1,0,0,0,0,0,0,0,0,1,5,15,3,,,,,,,,,,,,,,,3s,233.78599751694128,234.7877993308939,234.77925410494208,None,235.778536174912,238.42125793313608,235.778536174912,238.42125793313608,238.42125793313608,None,238.42125793313608,None,space,0.36918907426297665,238.42125793313608,None,2.6429,238.91987622203305,None,,,,,,,DEC024,001,2022_Dec_02_1638,2-25_cond_decay_EYE-try,2021.2.3,119.30590777686994,
left,0.75,1.0,0,0,0,0,0,0,0,0,0,1,6,16,7,,,,,,,,,,,,,,,3s,240.00465261610225,241.00402857316658,240.9957141140476,None,241.99532116902992,242.50396472914144,241.99532116902992,242.50396472914144,242.50396472914144,None,242.50396472914144,None,space,0.510610044002533,242.50396472914144,None,0.5092,243.14480905095115,None,,,,,,,DEC024,001,2022_Dec_02_1638,2-25_cond_decay_EYE-try,2021.2.3,119.30590777686994,
right,1.0,0.75,0,0,0,0,0,0,0,0,0,1,7,17,2,,,,,,,,,,,,,,,3s,244.24416455300525,245.24620328005403,245.23790998524055,None,246.2378773218952,247.0129483351484,246.2378773218952,247.0129483351484,247.0129483351484,None,247.0129483351484,None,space,0.36006005527451634,247.0129483351484,None,0.7742,247.5030183349736,None,,,,,,,DEC024,001,2022_Dec_02_1638,2-25_cond_decay_EYE-try,2021.2.3,119.30590777686994,
left,0.75,1.0,0,0,0,0,0,0,0,0,0,1,8,18,5,,,,,,,,,,,,,,,3s,248.59452406316996,249.59615345019847,249.5871306359768,None,250.5879779169336,253.49615870416164,250.5879779169336,253.49615870416164,253.48743287520483,None,253.48743287520483,None,space,0.3278714888729155,253.48743287520483,None,2.9064,253.94404840283096,None,,,,,,,DEC024,001,2022_Dec_02_1638,2-25_cond_decay_EYE-try,2021.2.3,119.30590777686994,
right,1.0,0.75,0,0,0,0,0,0,0,0,0,1,9,19,8,,,,,,,,,,,,,,,3s,255.03738343389705,256.03780570207164,256.0292852250859,None,257.028976268135,257.7212264612317,257.028976268135,257.7212264612317,257.7212264612317,None,257.7212264612317,None,space,0.5336904949508607,257.7212264612317,None,0.6921,258.37948773801327,None,,,,,,,DEC024,001,2022_Dec_02_1638,2-25_cond_decay_EYE-try,2021.2.3,119.30590777686994,
,,,,0,0,0,0,0,0,0,0,,,,,,,,,,,,,,,,,,,,,,,,,,,,,,,,,,,,,,,,,,,,,DEC024,001,2022_Dec_02_1638,2-25_cond_decay_EYE-try,2021.2.3,119.30590777686994,
left,0.75,1.0,0,0,0,0,0,1,0,1,0,0,0,0,2,,,,,,,,,259.2782311090268,None,259.2782311090268,None,259.2782311090268,None,5s,262.2299565798603,263.2298005851917,263.220781438984,None,264.22146956902,265.1124126701616,264.22146956902,265.1124126701616,265.1124126701616,None,265.1124126701616,None,space,0.4439784954302013,265.1124126701616,None,0.8921,265.6866512000561,None,,,,,,,DEC024,001,2022_Dec_02_1638,2-25_cond_decay_EYE-try,2021.2.3,119.30590777686994,
right,1.0,0.75,0,0,0,0,0,1,0,1,0,0,1,1,1,,,,,,,,,,,,,,,5s,266.77790494589135,267.77913319086656,267.7627999940887,None,268.76257894095033,273.0129777560942,268.76257894095033,273.0129777560942,273.0129777560942,None,273.0129777560942,None,space,0.3683812119998038,273.0129777560942,None,4.2466,273.51098613487557,None,,,,,,,DEC024,001,2022_Dec_02_1638,2-25_cond_decay_EYE-try,2021.2.3,119.30590777686994,
right,1.0,0.75,0,0,0,0,0,1,0,1,0,0,2,2,0,,,,,,,,,,,,,,,5s,274.594857850112,275.5965668312274,275.587263234891,None,276.58772457391024,277.42969857295975,276.58772457391024,277.42969857295975,277.42969857295975,None,277.42969857295975,None,space,0.7767365858890116,277.42969857295975,None,0.8428,278.3371025910601,None,,,,,,,DEC024,001,2022_Dec_02_1638,2-25_cond_decay_EYE-try,2021.2.3,119.30590777686994,
left,1.0,0.75,1,0,0,0,0,1,0,1,0,0,3,3,7,,,,,,,,,,,,,,,5s,279.42864773003384,280.42921112384647,280.4218024411239,None,281.4212069050409,283.7382342312485,281.4212069050409,283.7382342312485,283.7382342312485,None,283.7382342312485,None,space,0.444622291252017,283.7382342312485,None,2.3138,284.3116119490005,None,,,,,,,DEC024,001,2022_Dec_02_1638,2-25_cond_decay_EYE-try,2021.2.3,119.30590777686994,
left,0.75,1.0,0,0,0,0,0,1,0,1,0,0,4,4,4,,,,,,,,,,,,,,,5s,285.40282435296103,286.4048127462156,286.3958507659845,None,287.39598786085844,291.1296198540367,287.39598786085844,291.1296198540367,291.1296198540367,None,291.1296198540367,None,space,0.4862354639917612,291.1296198540367,None,3.7315,291.7447192450054,None,,,,,,,DEC024,001,2022_Dec_02_1638,2-25_cond_decay_EYE-try,2021.2.3,119.30590777686994,
right,0.75,1.0,1,0,0,0,0,1,0,1,0,0,5,5,9,,,,,,,,,,,,,,,5s,292.83703185385093,293.8384923702106,293.8299068729393,None,294.82950475392863,295.67919193115085,294.82950475392863,295.67919193115085,295.67919193115085,None,295.67919193115085,None,space,0.6007089605554938,295.67919193115085,None,0.8481,296.40432380791754,None,,,,,,,DEC024,001,2022_Dec_02_1638,2-25_cond_decay_EYE-try,2021.2.3,119.30590777686994,
left,0.75,1.0,0,0,0,0,0,1,0,1,0,0,6,6,3,,,,,,,,,,,,,,,5s,297.5033921729773,298.5043504629284,298.4960742741823,None,299.4964747019112,300.2714944090694,299.4964747019112,300.2714944090694,300.2625705501996,None,300.2625705501996,None,space,0.5277266171760857,300.2625705501996,None,0.7703,300.9201025129296,None,,,,,,,DEC024,001,2022_Dec_02_1638,2-25_cond_decay_EYE-try,2021.2.3,119.30590777686994,
right,1.0,0.75,0,0,0,0,0,1,0,1,0,0,7,7,6,,,,,,,,,,,,,,,5s,302.01179854618385,303.01254505384713,303.00510071823373,None,304.00450161704794,304.263579797931,304.00450161704794,304.263579797931,304.2547354372218,None,304.2547354372218,None,space,0.5437268069945276,304.2547354372218,None,0.2529,304.9285980742425,None,,,,,,,DEC024,001,2022_Dec_02_1638,2-25_cond_decay_EYE-try,2021.2.3,119.30590777686994,
right,1.0,0.75,0,0,0,0,0,1,0,1,0,0,8,8,8,,,,,,,,,,,,,,,5s,306.02032953314483,307.02116004982963,307.01276874309406,None,308.0131059391424,308.34647099114954,308.0131059391424,308.34647099114954,308.34647099114954,None,308.34647099114954,None,space,0.5500426520593464,308.34647099114954,None,0.3344,309.02194068813697,None,,,,,,,DEC024,001,2022_Dec_02_1638,2-25_cond_decay_EYE-try,2021.2.3,119.30590777686994,
left,0.75,1.0,0,0,0,0,0,1,0,1,0,0,9,9,5,,,,,,,,,,,,,,,5s,310.12051379308105,311.12137483386323,311.11317296279594,None,312.1132619380951,312.27929652808234,312.1132619380951,312.27929652808234,312.27148859295994,None,312.27148859295994,None,space,0.4528720239177346,312.27148859295994,None,0.1634,312.85348113579676,None,,,,,,,DEC024,001,2022_Dec_02_1638,2-25_cond_decay_EYE-try,2021.2.3,119.30590777686994,
left,0.75,1.0,0,0,0,0,0,1,0,1,0,1,0,10,4,,,,,,,,,,,,,,,5s,313.93658482516184,314.93838384607807,314.93016226310283,None,315.93012666283175,317.91296930098906,315.93012666283175,317.91296930098906,317.90529014216736,None,317.90529014216736,None,space,0.42710800701752305,317.90529014216736,None,1.9816,318.4614415760152,None,,,,,,,DEC024,001,2022_Dec_02_1638,2-25_cond_decay_EYE-try,2021.2.3,119.30590777686994,
right,1.0,0.75,0,0,0,0,0,1,0,1,0,1,1,11,8,,,,,,,,,,,,,,,5s,319.5538042159751,320.5550963790156,320.5470468788408,None,321.54619672102854,321.7546485038474,321.54619672102854,321.7546485038474,321.7546485038474,None,321.7546485038474,None,space,0.542912463657558,321.7546485038474,None,0.208,322.4218555651605,None,,,,,,,DEC024,001,2022_Dec_02_1638,2-25_cond_decay_EYE-try,2021.2.3,119.30590777686994,
left,0.75,1.0,0,0,0,0,0,1,0,1,0,1,2,12,5,,,,,,,,,,,,,,,5s,323.5201998320408,324.52122645592317,324.5131425638683,None,325.5135505469516,330.15510661900043,325.5135505469516,330.15510661900043,330.14635951211676,None,330.14635951211676,None,space,0.4026813991367817,330.14635951211676,None,4.6349,330.67871686210856,None,,,,,,,DEC024,001,2022_Dec_02_1638,2-25_cond_decay_EYE-try,2021.2.3,119.30590777686994,
right,1.0,0.75,0,0,0,0,0,1,0,1,0,1,3,13,6,,,,,,,,,,,,,,,5s,331.7713177711703,332.7721382379532,332.7632420468144,None,333.7635452961549,336.587990721222,333.7635452961549,336.587990721222,336.5804005651735,None,336.5804005651735,None,space,0.4271275969222188,336.5804005651735,None,2.8198,337.13761198706925,None,,,,,,,DEC024,001,2022_Dec_02_1638,2-25_cond_decay_EYE-try,2021.2.3,119.30590777686994,
left,0.75,1.0,0,0,0,0,0,1,0,1,0,1,4,14,3,,,,,,,,,,,,,,,5s,338.2291327859275,339.22995673911646,339.2217360502109,None,340.21293169725686,341.3629763489589,340.21293169725686,341.3629763489589,341.3629763489589,None,341.3629763489589,None,space,0.4926570067182183,341.3629763489589,None,1.1445,341.9796658800915,None,,,,,,,DEC024,001,2022_Dec_02_1638,2-25_cond_decay_EYE-try,2021.2.3,119.30590777686994,
right,0.75,1.0,1,0,0,0,0,1,0,1,0,1,5,15,9,,,,,,,,,,,,,,,5s,343.0785655891523,344.0799046019092,344.07189128082246,None,345.0720044551417,345.421983696986,345.0720044551417,345.421983696986,345.41310279024765,None,345.41310279024765,None,space,0.6846547117456794,345.41310279024765,None,0.3452,346.2217117799446,None,,,,,,,DEC024,001,2022_Dec_02_1638,2-25_cond_decay_EYE-try,2021.2.3,119.30590777686994,
left,1.0,0.75,1,0,0,0,0,1,0,1,0,1,6,16,7,,,,,,,,,,,,,,,5s,347.32090545492247,348.3221384701319,348.3132176361978,None,349.30514959525317,352.1057546250522,349.30514959525317,352.1057546250522,352.1057546250522,None,352.1057546250522,None,space,0.4189721909351647,352.1057546250522,None,2.7988,352.65410849591717,None,,,,,,,DEC024,001,2022_Dec_02_1638,2-25_cond_decay_EYE-try,2021.2.3,119.30590777686994,
right,1.0,0.75,0,0,0,0,0,1,0,1,0,1,7,17,0,,,,,,,,,,,,,,,5s,353.7458826438524,354.74693390680477,354.73829645104706,None,355.738642137032,356.6467682882212,355.738642137032,356.6467682882212,356.6389269628562,None,356.6389269628562,None,space,0.6775506120175123,356.6389269628562,None,0.9026,357.44614997599274,None,,,,,,,DEC024,001,2022_Dec_02_1638,2-25_cond_decay_EYE-try,2021.2.3,119.30590777686994,
right,1.0,0.75,0,0,0,0,0,1,0,1,0,1,8,18,1,,,,,,,,,,,,,,,5s,358.5376897668466,359.5388636509888,359.5303426501341,None,360.53032487118617,364.3467451762408,360.53032487118617,364.3467451762408,364.339067813009,365.3389903767966,364.339067813009,365.3389903767966,None,,364.339067813009,365.3389903767966,3.8138,365.47908910689875,None,,,,,,,DEC024,001,2022_Dec_02_1638,2-25_cond_decay_EYE-try,2021.2.3,119.30590777686994,
left,0.75,1.0,0,0,0,0,0,1,0,1,0,1,9,19,2,,,,,,,,,,,,,,,5s,366.5628913808614,367.5638748430647,367.55561952106655,None,368.555825361982,371.8224707390182,368.555825361982,371.8224707390182,371.81392126111314,None,371.81392126111314,None,space,0.4838532069697976,371.81392126111314,None,3.2626,372.4292362141423,None,,,,,,,DEC024,001,2022_Dec_02_1638,2-25_cond_decay_EYE-try,2021.2.3,119.30590777686994,
,,,,0,0,0,0,1,0,1,0,,,,,,,,,,,,,,,,,,,,,,,,,,,,,,,,,,,,,,,,,,,,,DEC024,001,2022_Dec_02_1638,2-25_cond_decay_EYE-try,2021.2.3,119.30590777686994,
right,1.0,0.75,0,0,0,0,0,2,0,2,0,0,0,0,6,,,,,,,,,373.32048375625163,None,373.32048375625163,None,373.32048375625163,None,10s,381.0048426198773,382.0055520008318,381.98869925318286,None,382.98903684318066,386.1883955509402,382.98903684318066,386.1883955509402,386.1883955509402,None,386.1883955509402,None,space,0.44253623578697443,386.1883955509402,None,3.1995,386.7630633530207,None,,,,,,,DEC024,001,2022_Dec_02_1638,2-25_cond_decay_EYE-try,2021.2.3,119.30590777686994,
right,1.0,0.75,0,0,0,0,0,2,0,2,0,0,1,1,2,,,,,,,,,,,,,,,10s,387.8540809019469,388.8556289849803,388.84724623011425,None,389.84734901599586,396.4469279018231,389.84734901599586,396.4469279018231,396.4392649708316,None,396.4392649708316,None,space,0.4941433509811759,396.4392649708316,None,6.5938,397.0624394188635,None,,,,,,,DEC024,001,2022_Dec_02_1638,2-25_cond_decay_EYE-try,2021.2.3,119.30590777686994,
left,0.75,1.0,0,0,0,0,0,2,0,2,0,0,2,2,1,,,,,,,,,,,,,,,10s,398.16300873318687,399.1643380029127,399.1561883268878,None,400.1553500900045,407.29793674405664,400.1553500900045,407.29793674405664,407.28919423697516,None,407.28919423697516,None,space,0.4171467237174511,407.28919423697516,None,7.1381,407.83067329600453,None,,,,,,,DEC024,001,2022_Dec_02_1638,2-25_cond_decay_EYE-try,2021.2.3,119.30590777686994,
right,1.0,0.75,0,0,0,0,0,2,0,2,0,0,3,3,5,,,,,,,,,,,,,,,10s,408.9298586198129,409.93132314505056,409.9228592622094,None,410.92195826396346,416.64710883190855,410.92195826396346,416.64710883190855,416.64710883190855,None,416.64710883190855,None,space,0.45983266783878207,416.64710883190855,None,5.7258,417.23853956721723,None,,,,,,,DEC024,001,2022_Dec_02_1638,2-25_cond_decay_EYE-try,2021.2.3,119.30590777686994,
right,0.75,1.0,1,0,0,0,0,2,0,2,0,0,4,4,7,,,,,,,,,,,,,,,10s,418.32952619018033,419.33118070987985,419.3228765549138,None,420.32271808898076,425.4648695071228,420.32271808898076,425.4648695071228,425.4560614009388,None,425.4560614009388,None,space,0.5752086071297526,425.4560614009388,None,5.1354,426.1555741401389,None,,,,,,,DEC024,001,2022_Dec_02_1638,2-25_cond_decay_EYE-try,2021.2.3,119.30590777686994,
right,1.0,0.75,0,0,0,0,0,2,0,2,0,0,5,5,8,,,,,,,,,,,,,,,10s,427.24691261490807,428.2475390988402,428.2393818870187,None,429.23989094700664,438.9145483309403,429.23989094700664,438.9145483309403,438.9145483309403,None,438.9145483309403,None,None,,438.9145483309403,None,9.6756,440.0385557739064,None,,,,,,,DEC024,001,2022_Dec_02_1638,2-25_cond_decay_EYE-try,2021.2.3,119.30590777686994,
left,0.75,1.0,0,0,0,0,0,2,0,2,0,0,6,6,0,,,,,,,,,,,,,,,10s,441.1307864552364,442.13128953194246,442.1228022198193,None,443.12286095600575,450.91483878111467,443.12286095600575,450.91483878111467,450.90605510398746,None,450.90605510398746,None,space,0.45259789703413844,450.90605510398746,None,7.7877,451.4888126128353,None,,,,,,,DEC024,001,2022_Dec_02_1638,2-25_cond_decay_EYE-try,2021.2.3,119.30590777686994,
left,0.75,1.0,0,0,0,0,0,2,0,2,0,0,7,7,4,,,,,,,,,,,,,,,10s,452.57959567708895,453.58182064583525,453.5724796792492,None,454.5732063539326,456.36467745993286,454.5732063539326,456.36467745993286,456.3568809540011,None,456.3568809540011,None,space,0.483776758890599,456.3568809540011,None,1.7884,456.97201291890815,None,,,,,,,DEC024,001,2022_Dec_02_1638,2-25_cond_decay_EYE-try,2021.2.3,119.30590777686994,
right,1.0,0.75,0,0,0,0,0,2,0,2,0,0,8,8,9,,,,,,,,,,,,,,,10s,458.063666312024,459.0647404100746,459.05639825901017,None,460.0565830040723,464.2486480087973,460.0565830040723,464.2486480087973,464.23958514491096,None,464.23958514491096,None,space,0.4777577421627939,464.23958514491096,None,4.1887,464.8472476969473,None,,,,,,,DEC024,001,2022_Dec_02_1638,2-25_cond_decay_EYE-try,2021.2.3,119.30590777686994,
left,0.75,1.0,0,0,0,0,0,2,0,2,0,0,9,9,3,,,,,,,,,,,,,,,10s,465.93903941009194,466.94000920606777,466.9236518731341,None,467.9233134058304,471.0228746510111,467.9233134058304,471.0228746510111,471.0228746510111,None,471.0228746510111,None,space,0.3843146343715489,471.0228746510111,None,3.0974,471.5389424832538,None,,,,,,,DEC024,001,2022_Dec_02_1638,2-25_cond_decay_EYE-try,2021.2.3,119.30590777686994,
right,0.75,1.0,1,0,0,0,0,2,0,2,0,1,0,10,7,,,,,,,,,,,,,,,10s,472.6306687151082,473.6321419691667,473.62341243680567,None,474.62339242594317,474.7736864229664,474.62339242594317,474.7736864229664,474.7736864229664,None,474.7736864229664,None,None,,474.7736864229664,None,0.1506,475.8969143559225,None,,,,,,,DEC024,001,2022_Dec_02_1638,2-25_cond_decay_EYE-try,2021.2.3,119.30590777686994,
right,1.0,0.75,0,0,0,0,0,2,0,2,0,1,1,11,9,,,,,,,,,,,,,,,10s,476.9883926548064,477.9899950521067,477.98135442100465,None,478.98135361401364,479.2399475709535,478.98135361401364,479.2399475709535,479.2399475709535,None,479.2399475709535,None,None,,479.2399475709535,None,0.259,480.3568335562013,None,,,,,,,DEC024,001,2022_Dec_02_1638,2-25_cond_decay_EYE-try,2021.2.3,119.30590777686994,
left,0.75,1.0,0,0,0,0,0,2,0,2,0,1,2,12,1,,,,,,,,,,,,,,,10s,481.4556216741912,482.4562890077941,482.44823673414066,None,483.44815320614725,484.2567346538417,483.44815320614725,484.2567346538417,484.2567346538417,None,484.2567346538417,None,space,0.33611570578068495,484.2567346538417,None,0.8058,484.72268281225115,None,,,,,,,DEC024,001,2022_Dec_02_1638,2-25_cond_decay_EYE-try,2021.2.3,119.30590777686994,
right,1.0,0.75,0,0,0,0,0,2,0,2,0,1,3,13,2,,,,,,,,,,,,,,,10s,485.8222769992426,486.82283166004345,486.8154791989364,None,487.8152909348719,492.1321002067998,487.8152909348719,492.1321002067998,492.1321002067998,None,492.1321002067998,None,None,,492.1321002067998,None,4.3161,493.25542493583634,None,,,,,,,DEC024,001,2022_Dec_02_1638,2-25_cond_decay_EYE-try,2021.2.3,119.30590777686994,
left,1.0,0.75,1,0,0,0,0,2,0,2,0,1,4,14,6,,,,,,,,,,,,,,,10s,494.34722633380443,495.34816718520597,495.33220893191174,None,496.33234358625486,500.23135837120935,496.33234358625486,500.23135837120935,500.23135837120935,None,500.23135837120935,None,space,0.5841871597804129,500.23135837120935,None,3.9003,500.9477182351984,None,,,,,,,DEC024,001,2022_Dec_02_1638,2-25_cond_decay_EYE-try,2021.2.3,119.30590777686994,
left,0.75,1.0,0,0,0,0,0,2,0,2,0,1,5,15,4,,,,,,,,,,,,,,,10s,502.03935970924795,503.04023454291746,503.0318965362385,None,504.0319335469976,513.832045360934,504.0319335469976,513.832045360934,513.832045360934,None,513.832045360934,None,space,0.6776217860169709,513.832045360934,None,9.8012,514.6385742048733,None,,,,,,,DEC024,001,2022_Dec_02_1638,2-25_cond_decay_EYE-try,2021.2.3,119.30590777686994,
right,1.0,0.75,0,0,0,0,0,2,0,2,0,1,6,16,5,,,,,,,,,,,,,,,10s,515.731080153957,516.7320291199721,516.7235709931701,None,517.7238087221049,527.640618013218,517.7238087221049,527.640618013218,527.640618013218,None,527.640618013218,None,space,0.41733073396608233,527.640618013218,None,9.9148,528.1887703239918,None,,,,,,,DEC024,001,2022_Dec_02_1638,2-25_cond_decay_EYE-try,2021.2.3,119.30590777686994,
left,0.75,1.0,0,0,0,0,0,2,0,2,0,1,7,17,3,,,,,,,,,,,,,,,10s,529.2814255598933,530.2827990702353,530.2736052139662,None,531.2743744640611,534.6490684142336,531.2743744640611,534.6490684142336,534.641101277899,535.6409090668894,534.641101277899,535.6409090668894,None,,534.641101277899,535.6409090668894,3.3726,535.7725303182378,None,,,,,,,DEC024,001,2022_Dec_02_1638,2-25_cond_decay_EYE-try,2021.2.3,119.30590777686994,
left,0.75,1.0,0,0,0,0,0,2,0,2,0,1,8,18,0,,,,,,,,,,,,,,,10s,536.8646976901218,537.8657047511078,537.848590483889,None,538.8491984908469,546.8487715050578,538.8491984908469,546.8487715050578,546.8487715050578,None,546.8487715050578,None,space,0.6284468858502805,546.8487715050578,None,7.9995,547.6061499118805,None,,,,,,,DEC024,001,2022_Dec_02_1638,2-25_cond_decay_EYE-try,2021.2.3,119.30590777686994,
right,1.0,0.75,0,0,0,0,0,2,0,2,0,1,9,19,8,,,,,,,,,,,,,,,10s,548.6980584622361,549.6994407079183,549.690344885923,None,550.6904762801714,555.0240516392514,550.6904762801714,555.0240516392514,555.0240516392514,None,555.0240516392514,None,space,0.49440314108505845,555.0240516392514,None,4.3298,555.6474273651838,None,,,,,,,DEC024,001,2022_Dec_02_1638,2-25_cond_decay_EYE-try,2021.2.3,119.30590777686994,
,,,,0,0,0,0,2,0,2,0,,,,,,,,,,,,,,,,,,,,,,,,,,,,,,,,,,,,,,,,,,,,,DEC024,001,2022_Dec_02_1638,2-25_cond_decay_EYE-try,2021.2.3,119.30590777686994,
left,0.75,1.0,0,0,0,0,0,3,0,3,0,0,0,0,0,,,,,,,,,556.5393249802291,None,556.5393249802291,None,556.5393249802291,None,1s,572.3480195980519,573.3492816188373,573.3408760959283,None,574.3412532648072,574.8247254919261,574.3412532648072,574.8247254919261,574.815709467046,None,574.815709467046,None,space,0.39239247515797615,574.815709467046,None,0.4804,575.340133361984,None,,,,,,,DEC024,001,2022_Dec_02_1638,2-25_cond_decay_EYE-try,2021.2.3,119.30590777686994,
right,0.75,1.0,1,0,0,0,0,3,0,3,0,0,1,1,7,,,,,,,,,,,,,,,1s,576.4310403401032,577.4330076728947,577.4243945269845,None,578.4246441801079,578.6826383732259,578.4246441801079,578.6826383732259,578.6826383732259,None,578.6826383732259,None,space,0.4106403971090913,578.6826383732259,None,0.253,579.2229802431539,None,,,,,,,DEC024,001,2022_Dec_02_1638,2-25_cond_decay_EYE-try,2021.2.3,119.30590777686994,
right,1.0,0.75,0,0,0,0,0,3,0,3,0,0,2,2,2,,,,,,,,,,,,,,,1s,580.3146713250317,581.3161506592296,581.3079879852012,None,582.3080372470431,583.165665530134,582.3080372470431,583.165665530134,583.1580492388457,None,583.1580492388457,None,space,0.385515701957047,583.1580492388457,None,0.8517,583.6736362809315,None,,,,,,,DEC024,001,2022_Dec_02_1638,2-25_cond_decay_EYE-try,2021.2.3,119.30590777686994,
left,0.75,1.0,0,0,0,0,0,3,0,3,0,0,3,3,4,,,,,,,,,,,,,,,1s,584.7653372450732,585.7661390579306,585.7581022609957,None,586.7581909000874,587.5240947571583,586.7581909000874,587.5240947571583,587.5240947571583,None,587.5240947571583,None,space,0.2929073269478977,587.5240947571583,None,0.7604,587.9408353650942,None,,,,,,,DEC024,001,2022_Dec_02_1638,2-25_cond_decay_EYE-try,2021.2.3,119.30590777686994,
right,1.0,0.75,0,0,0,0,0,3,0,3,0,0,4,4,9,,,,,,,,,,,,,,,1s,589.0400209459476,590.0412552841008,590.0329702831805,None,591.0330881611444,591.5662030042149,591.0330881611444,591.5662030042149,591.5662030042149,None,591.5662030042149,None,space,0.4676838209852576,591.5662030042149,None,0.5333,592.1656000339426,None,,,,,,,DEC024,001,2022_Dec_02_1638,2-25_cond_decay_EYE-try,2021.2.3,119.30590777686994,
left,0.75,1.0,0,0,0,0,0,3,0,3,0,0,5,5,6,,,,,,,,,,,,,,,1s,593.2572136032395,594.2581880339421,594.2497421158478,None,595.2496130717918,596.0161880408414,595.2496130717918,596.0161880408414,596.0161880408414,None,596.0161880408414,None,space,0.46894505620002747,596.0161880408414,None,0.7666,596.6152356811799,None,,,,,,,DEC024,001,2022_Dec_02_1638,2-25_cond_decay_EYE-try,2021.2.3,119.30590777686994,
left,0.75,1.0,0,0,0,0,0,3,0,3,0,0,6,6,8,,,,,,,,,,,,,,,1s,597.7065369118936,598.7080680620857,598.6998262638226,None,599.6991987698711,600.2002140861005,599.6991987698711,600.2002140861005,600.2002140861005,None,600.2002140861005,None,space,0.39221574272960424,600.2002140861005,None,0.4991,600.7231311281212,None,,,,,,,DEC024,001,2022_Dec_02_1638,2-25_cond_decay_EYE-try,2021.2.3,119.30590777686994,
right,1.0,0.75,0,0,0,0,0,3,0,3,0,0,7,7,3,,,,,,,,,,,,,,,1s,601.8154539922252,602.8158484417945,602.8085063821636,None,603.8078698860481,604.1746872938238,603.8078698860481,604.1746872938238,604.1662262440659,None,604.1662262440659,None,space,0.4511233470402658,604.1662262440659,None,0.3631,604.7415657178499,None,,,,,,,DEC024,001,2022_Dec_02_1638,2-25_cond_decay_EYE-try,2021.2.3,119.30590777686994,
left,0.75,1.0,0,0,0,0,0,3,0,3,0,0,8,8,1,,,,,,,,,,,,,,,1s,605.8396268840879,606.8409845652059,606.8329378389753,None,607.8334292760119,608.8330100290477,607.8334292760119,608.8330100290477,608.8243944812566,None,608.8243944812566,None,space,0.3364841607399285,608.8243944812566,None,0.9995,609.289930597879,None,,,,,,,DEC024,001,2022_Dec_02_1638,2-25_cond_decay_EYE-try,2021.2.3,119.30590777686994,
left,1.0,0.75,1,0,0,0,0,3,0,3,0,0,9,9,5,,,,,,,,,,,,,,,1s,610.3816990479827,611.3829013351351,611.3745229612105,None,612.3747092671692,612.9746464770287,612.3747092671692,612.9746464770287,612.9667021972127,None,612.9667021972127,None,space,0.49428969994187355,612.9667021972127,None,0.5945,613.5901284618303,None,,,,,,,DEC024,001,2022_Dec_02_1638,2-25_cond_decay_EYE-try,2021.2.3,119.30590777686994,
left,0.75,1.0,0,0,0,0,0,3,0,3,0,1,0,10,6,,,,,,,,,,,,,,,1s,614.6752243950032,615.6748307491653,615.6665799529292,None,616.6659333538264,617.091307871975,616.6659333538264,617.091307871975,617.091307871975,None,617.091307871975,None,space,0.3668931177817285,617.091307871975,None,0.4245,617.5834416868165,None,,,,,,,DEC024,001,2022_Dec_02_1638,2-25_cond_decay_EYE-try,2021.2.3,119.30590777686994,
right,1.0,0.75,0,0,0,0,0,3,0,3,0,1,1,11,0,,,,,,,,,,,,,,,1s,618.6817355770618,619.682879971806,619.6744285807945,None,620.6746132890694,620.8746943389997,620.6746132890694,620.8746943389997,620.8746943389997,None,620.8746943389997,None,space,0.46899992087855935,620.8746943389997,None,0.1961,621.4738083882257,None,,,,,,,DEC024,001,2022_Dec_02_1638,2-25_cond_decay_EYE-try,2021.2.3,119.30590777686994,
right,1.0,0.75,0,0,0,0,0,3,0,3,0,1,2,12,9,,,,,,,,,,,,,,,1s,622.5656792810187,623.5667939870618,623.5586362238973,None,624.5580678242259,624.9495697910897,624.5580678242259,624.9495697910897,624.9495697910897,None,624.9495697910897,None,space,0.42639707401394844,624.9495697910897,None,0.3929,625.5069398041815,None,,,,,,,DEC024,001,2022_Dec_02_1638,2-25_cond_decay_EYE-try,2021.2.3,119.30590777686994,
left,1.0,0.75,1,0,0,0,0,3,0,3,0,1,3,13,5,,,,,,,,,,,,,,,1s,626.5986427329481,627.5997409820557,627.5915559581481,None,628.5917503661476,628.8419367899187,628.5917503661476,628.8419367899187,628.8419367899187,None,628.8419367899187,None,space,0.4165331651456654,628.8419367899187,None,0.2459,629.3821982988156,None,,,,,,,DEC024,001,2022_Dec_02_1638,2-25_cond_decay_EYE-try,2021.2.3,119.30590777686994,
right,1.0,0.75,0,0,0,0,0,3,0,3,0,1,4,14,3,,,,,,,,,,,,,,,1s,630.4907576581463,631.4920198018663,631.4749428709038,None,632.4754252121784,632.9585100528784,632.4754252121784,632.9585100528784,632.9585100528784,None,632.9585100528784,None,space,0.4168713432736695,632.9585100528784,None,0.4822,633.5072711710818,None,,,,,,,DEC024,001,2022_Dec_02_1638,2-25_cond_decay_EYE-try,2021.2.3,119.30590777686994,
left,0.75,1.0,0,0,0,0,0,3,0,3,0,1,5,15,4,,,,,,,,,,,,,,,1s,634.5984436548315,635.5995426448062,635.5913542518392,None,636.5913566770032,636.8169940430671,636.5913566770032,636.8169940430671,636.8082944108173,None,636.8082944108173,None,space,0.4608997041359544,636.8082944108173,None,0.2218,637.3988936939277,None,,,,,,,DEC024,001,2022_Dec_02_1638,2-25_cond_decay_EYE-try,2021.2.3,119.30590777686994,
left,0.75,1.0,0,0,0,0,0,3,0,3,0,1,6,16,1,,,,,,,,,,,,,,,1s,638.4907948500477,639.49176042201,639.4834031620994,None,640.4831443079747,641.0003388910554,640.4831443079747,641.0003388910554,641.0003388910554,None,641.0003388910554,None,space,0.4505643327720463,641.0003388910554,None,0.5136,641.5825883289799,None,,,,,,,DEC024,001,2022_Dec_02_1638,2-25_cond_decay_EYE-try,2021.2.3,119.30590777686994,
right,1.0,0.75,0,0,0,0,0,3,0,3,0,1,7,17,2,,,,,,,,,,,,,,,1s,642.6744038169272,643.6754613281228,643.6670041237958,None,644.6664679101668,645.2082330738194,644.6664679101668,645.2082330738194,645.2082330738194,None,645.2082330738194,None,space,0.4420809540897608,645.2082330738194,None,0.5392,645.7751067602076,None,,,,,,,DEC024,001,2022_Dec_02_1638,2-25_cond_decay_EYE-try,2021.2.3,119.30590777686994,
right,0.75,1.0,1,0,0,0,0,3,0,3,0,1,8,18,7,,,,,,,,,,,,,,,1s,646.8735045641661,647.8754015518352,647.8580599958077,None,648.8583613699302,649.1251525799744,648.8583613699302,649.1251525799744,649.1251525799744,None,649.1251525799744,None,space,0.42763091903179884,649.1251525799744,None,0.2671,649.681960745249,None,,,,,,,DEC024,001,2022_Dec_02_1638,2-25_cond_decay_EYE-try,2021.2.3,119.30590777686994,
left,0.75,1.0,0,0,0,0,0,3,0,3,0,1,9,19,8,,,,,,,,,,,,,,,1s,650.7742954390123,651.775427851826,651.7671494339593,None,652.7674242849462,653.4669317388907,652.7674242849462,653.4669317388907,653.4583258489147,None,653.4583258489147,None,space,0.3672834918834269,653.4583258489147,None,0.6936,653.9501882209443,None,,,,,,,DEC024,001,2022_Dec_02_1638,2-25_cond_decay_EYE-try,2021.2.3,119.30590777686994,
,,,,0,0,0,0,3,0,3,0,,,,,,,,,,,,,,,,,,,,,,,,,,,,,,,,,,,,,,,,,,,,,DEC024,001,2022_Dec_02_1638,2-25_cond_decay_EYE-try,2021.2.3,119.30590777686994,
,,,,0,0,0,0,,,,,,,,,,,,,,,,,,,,,,,,,,,,,,,,,,,,,,,,,,,654.8487572502345,None,654.8487572502345,None,654.8487572502345,None,DEC024,001,2022_Dec_02_1638,2-25_cond_decay_EYE-try,2021.2.3,119.30590777686994,
right,0.75,1.0,1,1,0,1,0,0,0,0,0,0,0,0,9,,,,,,,,,659.8488377598114,None,659.8488377598114,None,659.8488377598114,None,10s,673.3745551859029,674.3751169522293,674.3676171279512,None,675.3674378111027,683.5508429319598,675.3674378111027,683.5508429319598,683.5420908499509,None,683.5420908499509,None,space,0.5112090301699936,683.5420908499509,None,8.1764,684.1821618438698,None,,,,,,,DEC024,001,2022_Dec_02_1638,2-25_cond_decay_EYE-try,2021.2.3,119.30590777686994,
left,0.75,1.0,0,1,0,1,0,0,0,0,0,0,1,1,5,,,,,,,,,,,,,,,10s,685.2741762269288,686.2760682050139,686.2668750910088,None,687.2667021150701,688.467128328979,687.2667021150701,688.467128328979,688.467128328979,None,688.467128328979,None,space,0.5752555914223194,688.467128328979,None,1.1957,689.1671050810255,None,,,,,,,DEC024,001,2022_Dec_02_1638,2-25_cond_decay_EYE-try,2021.2.3,119.30590777686994,
right,1.0,0.75,0,1,0,1,0,0,0,0,0,0,2,2,7,,,,,,,,,,,,,,,10s,690.2664294098504,691.2676525758579,691.2591440579854,None,692.2592621240765,693.1504873698577,692.2592621240765,693.1504873698577,693.1419102568179,None,693.1419102568179,None,space,0.4839681498706341,693.1419102568179,None,0.8876,693.7510965070687,None,,,,,,,DEC024,001,2022_Dec_02_1638,2-25_cond_decay_EYE-try,2021.2.3,119.30590777686994,
right,0.75,1.0,1,1,0,1,0,0,0,0,0,0,3,3,1,,,,,,,,,,,,,,,10s,694.841076369863,695.8417816939764,695.8336230628192,None,696.8336427491158,706.0919582499191,696.8336427491158,706.0919582499191,706.0919582499191,None,706.0919582499191,None,space,0.569446265231818,706.0919582499191,None,9.2586,706.7907035099342,None,,,,,,,DEC024,001,2022_Dec_02_1638,2-25_cond_decay_EYE-try,2021.2.3,119.30590777686994,
left,0.75,1.0,0,1,0,1,0,0,0,0,0,0,4,4,0,,,,,,,,,,,,,,,10s,707.8907143431716,708.8927206741646,708.8758386122063,None,709.8755177580751,717.3595437901095,709.8755177580751,717.3595437901095,717.3595437901095,None,717.3595437901095,None,None,,717.3595437901095,None,7.4819,718.4829921098426,None,,,,,,,DEC024,001,2022_Dec_02_1638,2-25_cond_decay_EYE-try,2021.2.3,119.30590777686994,
right,1.0,0.75,0,1,0,1,0,0,0,0,0,0,5,5,4,,,,,,,,,,,,,,,10s,719.5750165218487,720.5763359321281,720.559118246194,None,721.5674936771393,725.1341513302177,721.5674936771393,725.1341513302177,725.1341513302177,None,725.1341513302177,None,space,0.46754841785877943,725.1341513302177,None,3.5676,725.7336431089789,None,,,,,,,DEC024,001,2022_Dec_02_1638,2-25_cond_decay_EYE-try,2021.2.3,119.30590777686994,
left,0.75,1.0,0,1,0,1,0,0,0,0,0,0,6,6,2,,,,,,,,,,,,,,,10s,726.8249873919412,727.8260749699548,727.8178033628501,None,728.8177327439189,732.7760867942125,728.8177327439189,732.7760867942125,732.7760867942125,None,732.7760867942125,None,space,0.5027280789799988,732.7760867942125,None,3.9552,733.4078813521191,None,,,,,,,DEC024,001,2022_Dec_02_1638,2-25_cond_decay_EYE-try,2021.2.3,119.30590777686994,
right,1.0,0.75,0,1,0,1,0,0,0,0,0,0,7,7,6,,,,,,,,,,,,,,,10s,734.4993974268436,735.5012790048495,735.4931602198631,None,736.4931517932564,744.7344940220937,736.4931517932564,744.7344940220937,744.7258453909308,None,744.7258453909308,None,space,0.48386972816661,744.7258453909308,None,8.24,745.3332726862282,None,,,,,,,DEC024,001,2022_Dec_02_1638,2-25_cond_decay_EYE-try,2021.2.3,119.30590777686994,
right,1.0,0.75,0,1,0,1,0,0,0,0,0,0,8,8,3,,,,,,,,,,,,,,,10s,746.4003802640364,747.4012503111735,747.3929641018622,None,748.3932444518432,752.7842049738392,748.3932444518432,752.7842049738392,752.7842049738392,None,752.7842049738392,None,space,0.5033890176564455,752.7842049738392,None,4.3906,753.4170613051392,None,,,,,,,DEC024,001,2022_Dec_02_1638,2-25_cond_decay_EYE-try,2021.2.3,119.30590777686994,
left,0.75,1.0,0,1,0,1,0,0,0,0,0,0,9,9,8,,,,,,,,,,,,,,,10s,754.5085007511079,755.5092884129845,755.50114446925,None,756.5010165590793,761.0599107779562,756.5010165590793,761.0599107779562,761.0599107779562,None,761.0599107779562,None,space,0.41065720189362764,761.0599107779562,None,4.5578,761.600601775106,None,,,,,,,DEC024,001,2022_Dec_02_1638,2-25_cond_decay_EYE-try,2021.2.3,119.30590777686994,
left,0.75,1.0,0,1,0,1,0,0,0,0,0,1,0,10,8,,,,,,,,,,,,,,,10s,762.6844103629701,763.6851697661914,763.6759473690763,None,764.6760296979919,773.9348922390491,764.6760296979919,773.9348922390491,773.9348922390491,None,773.9348922390491,None,space,0.48557873209938407,773.9348922390491,None,9.2602,774.549856768921,None,,,,,,,DEC024,001,2022_Dec_02_1638,2-25_cond_decay_EYE-try,2021.2.3,119.30590777686994,
left,0.75,1.0,0,1,0,1,0,0,0,0,0,1,1,11,0,,,,,,,,,,,,,,,10s,775.6420020060614,776.643121464178,776.6269325949252,None,777.6268619629554,779.3685608478263,777.6268619629554,779.3685608478263,779.3685608478263,None,779.3685608478263,None,space,0.5270928079262376,779.3685608478263,None,1.7393,780.0254491111264,None,,,,,,,DEC024,001,2022_Dec_02_1638,2-25_cond_decay_EYE-try,2021.2.3,119.30590777686994,
left,0.75,1.0,0,1,0,1,0,0,0,0,0,1,2,12,5,,,,,,,,,,,,,,,10s,781.1101600578986,782.1097859740257,782.1019288101234,None,783.1016100649722,785.1018860288896,783.1016100649722,785.1018860288896,785.1018860288896,None,785.1018860288896,None,None,,785.1018860288896,None,1.9998,786.2253764579073,None,,,,,,,DEC024,001,2022_Dec_02_1638,2-25_cond_decay_EYE-try,2021.2.3,119.30590777686994,
right,1.0,0.75,0,1,0,1,0,0,0,0,0,1,3,13,4,,,,,,,,,,,,,,,10s,787.3175731808878,788.3188985181041,788.3095542378724,None,789.3097614091821,793.934679465834,789.3097614091821,793.934679465834,793.934679465834,None,793.934679465834,None,space,0.5108525776304305,793.934679465834,None,4.6217,794.5750952791423,None,,,,,,,DEC024,001,2022_Dec_02_1638,2-25_cond_decay_EYE-try,2021.2.3,119.30590777686994,
right,1.0,0.75,0,1,0,1,0,0,0,0,0,1,4,14,3,,,,,,,,,,,,,,,10s,795.667095546145,796.6685883179307,796.6602087509818,None,797.6596496282145,800.0848770742305,797.6596496282145,800.0848770742305,800.0770862298086,None,800.0770862298086,None,space,0.5090120672248304,800.0770862298086,None,2.4204,800.717612199951,None,,,,,,,DEC024,001,2022_Dec_02_1638,2-25_cond_decay_EYE-try,2021.2.3,119.30590777686994,
right,1.0,0.75,0,1,0,1,0,0,0,0,0,1,5,15,6,,,,,,,,,,,,,,,10s,801.8016295749694,802.8016238817945,802.7933386778459,None,803.7932879338041,807.8440398960374,803.7932879338041,807.8440398960374,807.8352443901822,None,807.8352443901822,None,space,0.4694852423854172,807.8352443901822,None,4.0433,808.4340912471525,None,,,,,,,DEC024,001,2022_Dec_02_1638,2-25_cond_decay_EYE-try,2021.2.3,119.30590777686994,
right,1.0,0.75,0,1,0,1,0,0,0,0,0,1,6,16,7,,,,,,,,,,,,,,,10s,809.5255212299526,810.5268993959762,810.5185025450774,None,811.5186231681146,815.584806243889,811.5186231681146,815.584806243889,815.5771210640669,None,815.5771210640669,None,space,0.47739948984235525,815.5771210640669,None,4.0645,816.1837633498944,None,,,,,,,DEC024,001,2022_Dec_02_1638,2-25_cond_decay_EYE-try,2021.2.3,119.30590777686994,
left,1.0,0.75,1,1,0,1,0,0,0,0,0,1,7,17,9,,,,,,,,,,,,,,,10s,817.2755575492047,818.2774579469115,818.2683832212351,None,819.268409405835,826.2851701159962,819.268409405835,826.2851701159962,826.2766643380746,None,826.2766643380746,None,space,0.5198032748885453,826.2766643380746,None,7.0126,826.9253567340784,None,,,,,,,DEC024,001,2022_Dec_02_1638,2-25_cond_decay_EYE-try,2021.2.3,119.30590777686994,
right,0.75,1.0,1,1,0,1,0,0,0,0,0,1,8,18,1,,,,,,,,,,,,,,,10s,828.0173380398192,829.0188480298966,829.0105056180619,None,830.0103380619548,835.5102379121818,830.0103380619548,835.5102379121818,835.5016931360587,None,835.5016931360587,None,space,0.4925106489099562,835.5016931360587,None,5.4955,836.1189674669877,None,,,,,,,DEC024,001,2022_Dec_02_1638,2-25_cond_decay_EYE-try,2021.2.3,119.30590777686994,
left,0.75,1.0,0,1,0,1,0,0,0,0,0,1,9,19,2,,,,,,,,,,,,,,,10s,837.2172162360512,838.2191916718148,838.2100494820625,None,839.2103207120672,848.5690937200561,839.2103207120672,848.5690937200561,848.5606496129185,None,848.5606496129185,None,space,0.6254696231335402,848.5606496129185,None,9.3527,849.3178535918705,None,,,,,,,DEC024,001,2022_Dec_02_1638,2-25_cond_decay_EYE-try,2021.2.3,119.30590777686994,
,,,,1,0,1,0,0,0,0,0,,,,,,,,,,,,,,,,,,,,,,,,,,,,,,,,,,,,,,,,,,,,,DEC024,001,2022_Dec_02_1638,2-25_cond_decay_EYE-try,2021.2.3,119.30590777686994,
left,0.75,1.0,0,1,0,1,0,1,0,1,0,0,0,0,0,,,,,,,,,850.2096549412236,None,850.2096549412236,None,850.2096549412236,None,1s,854.9679913190193,855.9689390668646,855.9608401050791,None,856.9604283580557,857.8359011220746,856.9604283580557,857.8359011220746,857.8359011220746,None,857.8359011220746,None,space,0.3605881491675973,857.8359011220746,None,0.8757,858.326416133903,None,,,,,,,DEC024,001,2022_Dec_02_1638,2-25_cond_decay_EYE-try,2021.2.3,119.30590777686994,
right,1.0,0.75,0,1,0,1,0,1,0,1,0,0,1,1,4,,,,,,,,,,,,,,,1s,859.4175371238962,860.4190992531367,860.4106660932302,None,861.4106386122294,861.7687361948192,861.4106386122294,861.7687361948192,861.7687361948192,None,861.7687361948192,None,space,0.4362248843535781,861.7687361948192,None,0.3582,862.3342904462479,None,,,,,,,DEC024,001,2022_Dec_02_1638,2-25_cond_decay_EYE-try,2021.2.3,119.30590777686994,
right,0.75,1.0,1,1,0,1,0,1,0,1,0,0,2,2,3,,,,,,,,,,,,,,,1s,863.4259166847914,864.427978081163,864.410780614242,None,865.4104461092502,865.89450063603,865.4104461092502,865.89450063603,865.89450063603,None,865.89450063603,None,space,0.39414315298199654,865.89450063603,None,0.4775,866.4181663081981,None,,,,,,,DEC024,001,2022_Dec_02_1638,2-25_cond_decay_EYE-try,2021.2.3,119.30590777686994,
left,0.75,1.0,0,1,0,1,0,1,0,1,0,0,3,3,5,,,,,,,,,,,,,,,1s,867.5100009040907,868.5107641899958,868.5025870250538,None,869.502476088237,869.7861590730026,869.502476088237,869.7861590730026,869.777325661853,None,869.777325661853,None,space,0.41713684471324086,869.777325661853,None,0.2762,870.3191235437989,None,,,,,,,DEC024,001,2022_Dec_02_1638,2-25_cond_decay_EYE-try,2021.2.3,119.30590777686994,
left,0.75,1.0,0,1,0,1,0,1,0,1,0,0,4,4,7,,,,,,,,,,,,,,,1s,871.4113166038878,872.4110139240511,872.4029435492121,None,873.4025303130038,873.6778337829746,873.4025303130038,873.6778337829746,873.6778337829746,None,873.6778337829746,None,space,0.385698314756155,873.6778337829746,None,0.2754,874.1930689569563,None,,,,,,,DEC024,001,2022_Dec_02_1638,2-25_cond_decay_EYE-try,2021.2.3,119.30590777686994,
left,1.0,0.75,1,1,0,1,0,1,0,1,0,0,5,5,8,,,,,,,,,,,,,,,1s,875.2842247369699,876.2863238039427,876.2779840440489,None,877.2777740391903,878.1527212108485,877.2777740391903,878.1527212108485,878.1439754809253,None,878.1439754809253,None,space,0.35095443669706583,878.1439754809253,None,0.8725,878.6199151230976,None,,,,,,,DEC024,001,2022_Dec_02_1638,2-25_cond_decay_EYE-try,2021.2.3,119.30590777686994,
left,0.75,1.0,0,1,0,1,0,1,0,1,0,0,6,6,9,,,,,,,,,,,,,,,1s,879.7176703028381,880.7189092761837,880.7026957729831,None,881.7026685941964,882.6778872599825,881.7026685941964,882.6778872599825,882.6778872599825,None,882.6778872599825,None,space,0.3688535620458424,882.6778872599825,None,0.9724,883.1760194362141,None,,,,,,,DEC024,001,2022_Dec_02_1638,2-25_cond_decay_EYE-try,2021.2.3,119.30590777686994,
right,1.0,0.75,0,1,0,1,0,1,0,1,0,0,7,7,1,,,,,,,,,,,,,,,1s,884.2693574069999,885.2697108779103,885.261305661872,None,886.2605881439522,886.7525250921026,886.2605881439522,886.7525250921026,886.7446573530324,None,886.7446573530324,None,space,0.44179704785346985,886.7446573530324,None,0.4855,887.3179150400683,None,,,,,,,DEC024,001,2022_Dec_02_1638,2-25_cond_decay_EYE-try,2021.2.3,119.30590777686994,
right,1.0,0.75,0,1,0,1,0,1,0,1,0,0,8,8,2,,,,,,,,,,,,,,,1s,888.4095132332295,889.4109128811397,889.3943092320114,None,890.3942505512387,891.2776009091176,890.3942505512387,891.2776009091176,891.2776009091176,None,891.2776009091176,None,space,0.3688814169727266,891.2776009091176,None,0.877,891.7767619439401,None,,,,,,,DEC024,001,2022_Dec_02_1638,2-25_cond_decay_EYE-try,2021.2.3,119.30590777686994,
left,0.75,1.0,0,1,0,1,0,1,0,1,0,0,9,9,6,,,,,,,,,,,,,,,1s,892.8677157992497,893.869046236854,893.8616077941842,None,894.8608771702275,895.5191005701199,894.8608771702275,895.5191005701199,895.5191005701199,None,895.5191005701199,None,space,0.3615414728410542,895.5191005701199,None,0.6547,896.0101005099714,None,,,,,,,DEC024,001,2022_Dec_02_1638,2-25_cond_decay_EYE-try,2021.2.3,119.30590777686994,
right,1.0,0.75,0,1,0,1,0,1,0,1,0,1,0,10,2,,,,,,,,,,,,,,,1s,897.1017932659015,898.1026517339051,898.094260212034,None,899.0940997158177,899.3109869440086,899.0940997158177,899.3109869440086,899.3024955377914,None,899.3024955377914,None,space,0.47823563124984503,899.3024955377914,None,0.2098,899.9102370939218,None,,,,,,,DEC024,001,2022_Dec_02_1638,2-25_cond_decay_EYE-try,2021.2.3,119.30590777686994,
left,0.75,1.0,0,1,0,1,0,1,0,1,0,1,1,11,6,,,,,,,,,,,,,,,1s,901.0017269831151,902.0024185879156,901.9943031598814,None,902.9944516569376,903.7946065799333,902.9944516569376,903.7946065799333,903.7946065799333,None,903.7946065799333,None,space,0.35092117357999086,903.7946065799333,None,0.8,904.2699728962034,None,,,,,,,DEC024,001,2022_Dec_02_1638,2-25_cond_decay_EYE-try,2021.2.3,119.30590777686994,
left,1.0,0.75,1,1,0,1,0,1,0,1,0,1,2,12,8,,,,,,,,,,,,,,,1s,905.3683683387935,906.3695570281707,906.3614583620802,None,907.3609265070409,908.3444101400673,907.3609265070409,908.3444101400673,908.3444101400673,None,908.3444101400673,None,space,0.3926186738535762,908.3444101400673,None,0.9805,908.8614607690834,None,,,,,,,DEC024,001,2022_Dec_02_1638,2-25_cond_decay_EYE-try,2021.2.3,119.30590777686994,
right,1.0,0.75,0,1,0,1,0,1,0,1,0,1,3,13,0,,,,,,,,,,,,,,,1s,909.9602356548421,910.9609766090289,910.9532956401818,None,911.9533554799855,912.8364261691459,911.9533554799855,912.8364261691459,912.8364261691459,None,912.8364261691459,None,space,0.40222821570932865,912.8364261691459,None,0.8838,913.3682923340239,None,,,,,,,DEC024,001,2022_Dec_02_1638,2-25_cond_decay_EYE-try,2021.2.3,119.30590777686994,
right,1.0,0.75,0,1,0,1,0,1,0,1,0,1,4,14,4,,,,,,,,,,,,,,,1s,914.4526154892519,915.4532863488421,915.4442360601388,None,916.4443013612181,916.7534900559112,916.4443013612181,916.7534900559112,916.7534900559112,None,916.7534900559112,None,space,0.4689022647216916,916.7534900559112,None,0.3082,917.3523392328061,None,,,,,,,DEC024,001,2022_Dec_02_1638,2-25_cond_decay_EYE-try,2021.2.3,119.30590777686994,
right,0.75,1.0,1,1,0,1,0,1,0,1,0,1,5,15,3,,,,,,,,,,,,,,,1s,918.4431152781472,919.4446636140347,919.4364227419719,None,920.4360183621757,921.1692779948935,920.4360183621757,921.1692779948935,921.161755293142,None,921.161755293142,None,space,0.4607775993645191,921.161755293142,None,0.7292,921.7523830370046,None,,,,,,,DEC024,001,2022_Dec_02_1638,2-25_cond_decay_EYE-try,2021.2.3,119.30590777686994,
left,0.75,1.0,0,1,0,1,0,1,0,1,0,1,6,16,9,,,,,,,,,,,,,,,1s,922.8433861848898,923.844223828055,923.8360705580562,None,924.8363435831852,925.1120389997959,924.8363435831852,925.1120389997959,925.1120389997959,None,925.1120389997959,None,space,0.4331754860468209,925.1120389997959,None,0.2729,925.6768048950471,None,,,,,,,DEC024,001,2022_Dec_02_1638,2-25_cond_decay_EYE-try,2021.2.3,119.30590777686994,
right,1.0,0.75,0,1,0,1,0,1,0,1,0,1,7,17,1,,,,,,,,,,,,,,,1s,926.7688976908103,927.7700663860887,927.7529955198988,None,928.7532745441422,929.5118872509338,928.7532745441422,929.5118872509338,929.5118872509338,None,929.5118872509338,None,space,0.37732755579054356,929.5118872509338,None,0.7524,930.0191281652078,None,,,,,,,DEC024,001,2022_Dec_02_1638,2-25_cond_decay_EYE-try,2021.2.3,119.30590777686994,
left,0.75,1.0,0,1,0,1,0,1,0,1,0,1,8,18,7,,,,,,,,,,,,,,,1s,931.1101429210976,932.1114891339093,932.1032348801382,None,933.1029725018889,933.9369403179735,933.1029725018889,933.9369403179735,933.9369403179735,None,933.9369403179735,None,space,0.46835096925497055,933.9369403179735,None,0.8317,934.534939784091,None,,,,,,,DEC024,001,2022_Dec_02_1638,2-25_cond_decay_EYE-try,2021.2.3,119.30590777686994,
left,0.75,1.0,0,1,0,1,0,1,0,1,0,1,9,19,5,,,,,,,,,,,,,,,1s,935.6195950279944,936.619559828192,936.6121818940155,None,937.6122452588752,938.2944578160532,937.6122452588752,938.2944578160532,938.2944578160532,None,938.2944578160532,None,space,0.502899048384279,938.2944578160532,None,0.6824,938.9268097830936,None,,,,,,,DEC024,001,2022_Dec_02_1638,2-25_cond_decay_EYE-try,2021.2.3,119.30590777686994,
,,,,1,0,1,0,1,0,1,0,,,,,,,,,,,,,,,,,,,,,,,,,,,,,,,,,,,,,,,,,,,,,DEC024,001,2022_Dec_02_1638,2-25_cond_decay_EYE-try,2021.2.3,119.30590777686994,
left,0.75,1.0,0,1,0,1,0,2,0,2,0,0,0,0,2,,,,,,,,,939.8188572269864,None,939.8188572269864,None,939.8188572269864,None,5s,946.5100768958218,947.5121217151172,947.5036598690785,None,948.5031343768351,950.9447571150959,948.5031343768351,950.9447571150959,950.9447571150959,None,950.9447571150959,None,space,0.4529335000552237,950.9447571150959,None,2.4429,951.5269652139395,None,,,,,,,DEC024,001,2022_Dec_02_1638,2-25_cond_decay_EYE-try,2021.2.3,119.30590777686994,
left,0.75,1.0,0,1,0,1,0,2,0,2,0,0,1,1,6,,,,,,,,,,,,,,,5s,952.6188505608588,953.6201130850241,953.6117489901371,None,954.6118078487925,956.6121244700626,954.6118078487925,956.6121244700626,956.6121244700626,None,956.6121244700626,None,space,0.6670213206671178,956.6121244700626,None,2.0005,957.4032249101438,None,,,,,,,DEC024,001,2022_Dec_02_1638,2-25_cond_decay_EYE-try,2021.2.3,119.30590777686994,
left,0.75,1.0,0,1,0,1,0,2,0,2,0,0,2,2,4,,,,,,,,,,,,,,,5s,958.502607951872,959.5034314449877,959.4948027911596,None,960.4947944381274,960.7782129170373,960.4947944381274,960.7782129170373,960.7782129170373,None,960.7782129170373,None,space,0.6111644576303661,960.7782129170373,None,0.2813,961.5187160829082,None,,,,,,,DEC024,001,2022_Dec_02_1638,2-25_cond_decay_EYE-try,2021.2.3,119.30590777686994,
left,0.75,1.0,0,1,0,1,0,2,0,2,0,0,3,3,1,,,,,,,,,,,,,,,5s,962.5772703108378,963.5784284891561,963.5614687558264,None,964.5618221508339,965.0115596358664,964.5618221508339,965.0115596358664,965.0115596358664,None,965.0115596358664,None,None,,965.0115596358664,None,0.4461,966.1362179680727,None,,,,,,,DEC024,001,2022_Dec_02_1638,2-25_cond_decay_EYE-try,2021.2.3,119.30590777686994,
right,0.75,1.0,1,1,0,1,0,2,0,2,0,0,4,4,9,,,,,,,,,,,,,,,5s,967.2276632790454,968.2286519249901,968.2202355852351,None,969.2204388128594,970.5207237238064,969.2204388128594,970.5207237238064,970.5120875430293,None,970.5120875430293,None,space,0.4592425241135061,970.5120875430293,None,1.2953,971.1023943219334,None,,,,,,,DEC024,001,2022_Dec_02_1638,2-25_cond_decay_EYE-try,2021.2.3,119.30590777686994,
right,1.0,0.75,0,1,0,1,0,2,0,2,0,0,5,5,0,,,,,,,,,,,,,,,5s,972.1869970601983,973.1866088630632,973.1783858519047,None,974.1783323702402,978.6204868769273,974.1783323702402,978.6204868769273,978.6204868769273,None,978.6204868769273,None,space,0.4919381868094206,978.6204868769273,None,4.4385,979.2366948891431,None,,,,,,,DEC024,001,2022_Dec_02_1638,2-25_cond_decay_EYE-try,2021.2.3,119.30590777686994,
right,1.0,0.75,0,1,0,1,0,2,0,2,0,0,6,6,3,,,,,,,,,,,,,,,5s,980.3359005711973,981.3370621930808,981.328654136043,None,982.3291930169798,984.1119851358235,982.3291930169798,984.1119851358235,984.1119851358235,None,984.1119851358235,None,space,0.4004114558920264,984.1119851358235,None,1.778,984.6358612491749,None,,,,,,,DEC024,001,2022_Dec_02_1638,2-25_cond_decay_EYE-try,2021.2.3,119.30590777686994,
left,0.75,1.0,0,1,0,1,0,2,0,2,0,0,7,7,5,,,,,,,,,,,,,,,5s,985.7356121907942,986.7375501478091,986.7285641380586,None,987.7291925689206,990.9118981561624,987.7291925689206,990.9118981561624,990.904289950151,None,990.904289950151,None,space,0.4422810389660299,990.904289950151,None,3.181,991.4779897602275,None,,,,,,,DEC024,001,2022_Dec_02_1638,2-25_cond_decay_EYE-try,2021.2.3,119.30590777686994,
left,1.0,0.75,1,1,0,1,0,2,0,2,0,0,8,8,8,,,,,,,,,,,,,,,5s,992.569839023985,993.5703789498657,993.5622719270177,None,994.5624928809702,997.0461734090932,994.5624928809702,997.0461734090932,997.0375615139492,None,997.0375615139492,None,space,0.435438035055995,997.0375615139492,None,2.4767,997.6030897381715,None,,,,,,,DEC024,001,2022_Dec_02_1638,2-25_cond_decay_EYE-try,2021.2.3,119.30590777686994,
right,1.0,0.75,0,1,0,1,0,2,0,2,0,0,9,9,7,,,,,,,,,,,,,,,5s,998.6942303758115,999.6956867570989,999.6874522678554,None,1000.687065271195,1003.2623159680516,1000.687065271195,1003.2623159680516,1003.2623159680516,None,1003.2623159680516,None,space,0.4340265430510044,1003.2623159680516,None,2.5748,1003.8277477901429,None,,,,,,,DEC024,001,2022_Dec_02_1638,2-25_cond_decay_EYE-try,2021.2.3,119.30590777686994,
right,1.0,0.75,0,1,0,1,0,2,0,2,0,1,0,10,7,,,,,,,,,,,,,,,5s,1004.912618463859,1005.9123765868135,1005.9040041612461,None,1006.9043155889958,1007.5621031518094,1006.9043155889958,1007.5621031518094,1007.5544518427923,1008.5539548918605,1007.5544518427923,1008.5539548918605,None,,1007.5544518427923,1008.5539548918605,0.654,1008.6858068960719,None,,,,,,,DEC024,001,2022_Dec_02_1638,2-25_cond_decay_EYE-try,2021.2.3,119.30590777686994,
right,0.75,1.0,1,1,0,1,0,2,0,2,0,1,1,11,9,,,,,,,,,,,,,,,5s,1009.7443930911832,1010.7454453250393,1010.7373021449894,None,1011.7373763509095,1014.2958424198441,1011.7373763509095,1014.2958424198441,1014.2958424198441,None,1014.2958424198441,None,space,0.4338071611709893,1014.2958424198441,None,2.5528,1014.8610595189966,None,,,,,,,DEC024,001,2022_Dec_02_1638,2-25_cond_decay_EYE-try,2021.2.3,119.30590777686994,
right,1.0,0.75,0,1,0,1,0,2,0,2,0,1,2,12,3,,,,,,,,,,,,,,,5s,1015.9529380258173,1016.9541664770804,1016.9458997589536,None,1017.9452796508558,1018.5871774349362,1017.9452796508558,1018.5871774349362,1018.5871774349362,None,1018.5871774349362,None,space,0.5088420300744474,1018.5871774349362,None,0.6416,1019.2211593850516,None,,,,,,,DEC024,001,2022_Dec_02_1638,2-25_cond_decay_EYE-try,2021.2.3,119.30590777686994,
left,1.0,0.75,1,1,0,1,0,2,0,2,0,1,3,13,8,,,,,,,,,,,,,,,5s,1020.3194081499241,1021.3210009420291,1021.312950593885,None,1022.312146272976,1024.5707093109377,1022.312146272976,1024.5707093109377,1024.5707093109377,None,1024.5707093109377,None,None,,1024.5707093109377,None,2.2582,1025.6947204461321,None,,,,,,,DEC024,001,2022_Dec_02_1638,2-25_cond_decay_EYE-try,2021.2.3,119.30590777686994,
left,0.75,1.0,0,1,0,1,0,2,0,2,0,1,4,14,4,,,,,,,,,,,,,,,5s,1026.7784079751,1027.7793175498955,1027.770993170794,None,1028.771106584929,1032.8378187431954,1028.771106584929,1032.8378187431954,1032.8378187431954,None,1032.8378187431954,None,space,0.47495340229943395,1032.8378187431954,None,4.0658,1033.44498040108,None,,,,,,,DEC024,001,2022_Dec_02_1638,2-25_cond_decay_EYE-try,2021.2.3,119.30590777686994,
right,1.0,0.75,0,1,0,1,0,2,0,2,0,1,5,15,2,,,,,,,,,,,,,,,5s,1034.5365829132497,1035.5377659518272,1035.5297067728825,None,1036.5290258140303,1039.2047293698415,1036.5290258140303,1039.2047293698415,1039.1959467069246,1040.1959650102071,1039.1959467069246,1040.1959650102071,None,,1039.1959467069246,1040.1959650102071,2.6683,1040.328189405147,None,,,,,,,DEC024,001,2022_Dec_02_1638,2-25_cond_decay_EYE-try,2021.2.3,119.30590777686994,
left,0.75,1.0,0,1,0,1,0,2,0,2,0,1,6,16,5,,,,,,,,,,,,,,,5s,1041.42013239488,1042.420872895047,1042.4125406728126,None,1043.412703264039,1044.5464829388075,1043.412703264039,1044.5464829388075,1044.5464829388075,None,1044.5464829388075,None,space,0.4603232848457992,1044.5464829388075,None,1.1325,1045.1364105110988,None,,,,,,,DEC024,001,2022_Dec_02_1638,2-25_cond_decay_EYE-try,2021.2.3,119.30590777686994,
right,1.0,0.75,0,1,0,1,0,2,0,2,0,1,7,17,0,,,,,,,,,,,,,,,5s,1046.2278960212134,1047.2299210531637,1047.2206233581528,None,1048.221584295854,1049.2128078341484,1048.221584295854,1049.2128078341484,1049.204017946031,None,1049.204017946031,None,space,0.42773236706852913,1049.204017946031,None,0.9854,1049.7613645340316,None,,,,,,,DEC024,001,2022_Dec_02_1638,2-25_cond_decay_EYE-try,2021.2.3,119.30590777686994,
left,0.75,1.0,0,1,0,1,0,2,0,2,0,1,8,18,1,,,,,,,,,,,,,,,5s,1050.8536848099902,1051.8546812077984,1051.8465699092485,None,1052.845940604806,1056.9043648759834,1052.845940604806,1056.9043648759834,1056.9043648759834,None,1056.9043648759834,None,space,0.4421075899153948,1056.9043648759834,None,4.0593,1057.4714493211359,None,,,,,,,DEC024,001,2022_Dec_02_1638,2-25_cond_decay_EYE-try,2021.2.3,119.30590777686994,
left,0.75,1.0,0,1,0,1,0,2,0,2,0,1,9,19,6,,,,,,,,,,,,,,,5s,1058.5629880041815,1059.5628050309606,1059.554221807979,None,1060.5546819879673,1064.696533310227,1060.5546819879673,1064.696533310227,1064.696533310227,None,1064.696533310227,None,None,,1064.696533310227,None,4.1378,1065.820054544136,None,,,,,,,DEC024,001,2022_Dec_02_1638,2-25_cond_decay_EYE-try,2021.2.3,119.30590777686994,
,,,,1,0,1,0,2,0,2,0,,,,,,,,,,,,,,,,,,,,,,,,,,,,,,,,,,,,,,,,,,,,,DEC024,001,2022_Dec_02_1638,2-25_cond_decay_EYE-try,2021.2.3,119.30590777686994,
right,0.75,1.0,1,1,0,1,0,3,0,3,0,0,0,0,9,,,,,,,,,1066.7117606401443,None,1066.7117606401443,None,1066.7117606401443,None,3s,1070.5790478279814,1071.5793323568068,1071.5640914561227,None,1072.5635586981662,1073.1133474800736,1072.5635586981662,1073.1133474800736,1073.1133474800736,None,1073.1133474800736,None,space,0.47724938532337546,1073.1133474800736,None,0.5491,1073.7212429028004,None,,,,,,,DEC024,001,2022_Dec_02_1638,2-25_cond_decay_EYE-try,2021.2.3,119.30590777686994,
left,0.75,1.0,0,1,0,1,0,3,0,3,0,0,1,1,3,,,,,,,,,,,,,,,3s,1074.8124639410526,1075.8135253340006,1075.8052131161094,None,1076.804994550068,1078.1386459739879,1076.804994550068,1078.1386459739879,1078.1301629608497,None,1078.1301629608497,None,space,0.4433291582390666,1078.1301629608497,None,1.3266,1078.7035598051734,None,,,,,,,DEC024,001,2022_Dec_02_1638,2-25_cond_decay_EYE-try,2021.2.3,119.30590777686994,
right,1.0,0.75,0,1,0,1,0,3,0,3,0,0,2,2,6,,,,,,,,,,,,,,,3s,1079.7949640392326,1080.796643747948,1080.7793817808852,None,1081.7880424559116,1083.704409704078,1081.7880424559116,1083.704409704078,1083.696606330108,None,1083.696606330108,None,space,0.39184663631021976,1083.696606330108,None,1.91,1084.220406238921,None,,,,,,,DEC024,001,2022_Dec_02_1638,2-25_cond_decay_EYE-try,2021.2.3,119.30590777686994,
right,1.0,0.75,0,1,0,1,0,3,0,3,0,0,3,3,7,,,,,,,,,,,,,,,3s,1085.3115341248922,1086.3137255222537,1086.3051961478777,None,1087.3052208111621,1089.9460968910716,1087.3052208111621,1089.9460968910716,1089.9386362321675,None,1089.9386362321675,None,space,0.4600203726440668,1089.9386362321675,None,2.635,1090.5290187071078,None,,,,,,,DEC024,001,2022_Dec_02_1638,2-25_cond_decay_EYE-try,2021.2.3,119.30590777686994,
left,0.75,1.0,0,1,0,1,0,3,0,3,0,0,4,4,5,,,,,,,,,,,,,,,3s,1091.6202468010597,1092.6220784308389,1092.6136720529757,None,1093.6138006378897,1094.1387231182307,1093.6138006378897,1094.1387231182307,1094.1387231182307,None,1094.1387231182307,None,space,0.48590545868501067,1094.1387231182307,None,0.5213,1094.754113013856,None,,,,,,,DEC024,001,2022_Dec_02_1638,2-25_cond_decay_EYE-try,2021.2.3,119.30590777686994,
right,1.0,0.75,0,1,0,1,0,3,0,3,0,0,5,5,8,,,,,,,,,,,,,,,3s,1095.854125753045,1096.855361935217,1096.8468356328085,None,1097.8465158101171,1098.8803380811587,1097.8465158101171,1098.8803380811587,1098.8803380811587,None,1098.8803380811587,None,space,0.4165938775986433,1098.8803380811587,None,1.0316,1099.4288422078826,None,,,,,,,DEC024,001,2022_Dec_02_1638,2-25_cond_decay_EYE-try,2021.2.3,119.30590777686994,
left,0.75,1.0,0,1,0,1,0,3,0,3,0,0,6,6,2,,,,,,,,,,,,,,,3s,1100.5291634779423,1101.5300201438367,1101.5128560508601,None,1102.5131627521478,1105.2133713061921,1102.5131627521478,1105.2133713061921,1105.2133713061921,None,1105.2133713061921,None,space,0.4022251688875258,1105.2133713061921,None,2.6958,1105.745076234918,None,,,,,,,DEC024,001,2022_Dec_02_1638,2-25_cond_decay_EYE-try,2021.2.3,119.30590777686994,
left,0.75,1.0,0,1,0,1,0,3,0,3,0,0,7,7,1,,,,,,,,,,,,,,,3s,1106.8303229548037,1107.830415010918,1107.8221482960507,None,1108.8213452021591,1110.7215213999152,1108.8213452021591,1110.7215213999152,1110.7215213999152,None,1110.7215213999152,None,space,0.4532754677347839,1110.7215213999152,None,1.8947,1111.3036707201973,None,,,,,,,DEC024,001,2022_Dec_02_1638,2-25_cond_decay_EYE-try,2021.2.3,119.30590777686994,
left,1.0,0.75,1,1,0,1,0,3,0,3,0,0,8,8,0,,,,,,,,,,,,,,,3s,1112.3959629740566,1113.3969052489847,1113.3798361951485,None,1114.380007820204,1114.7799097700045,1114.380007820204,1114.7799097700045,1114.7799097700045,None,1114.7799097700045,None,space,0.5608714027330279,1114.7799097700045,None,0.3934,1115.4709908971563,None,,,,,,,DEC024,001,2022_Dec_02_1638,2-25_cond_decay_EYE-try,2021.2.3,119.30590777686994,
right,1.0,0.75,0,1,0,1,0,3,0,3,0,0,9,9,4,,,,,,,,,,,,,,,3s,1116.5625381111167,1117.5638987948187,1117.5548966871575,None,1118.554866698105,1120.1715963468887,1118.554866698105,1120.1715963468887,1120.1638096841052,None,1120.1638096841052,None,space,0.4607188808731735,1120.1638096841052,None,1.6114,1120.7539314231835,None,,,,,,,DEC024,001,2022_Dec_02_1638,2-25_cond_decay_EYE-try,2021.2.3,119.30590777686994,
right,0.75,1.0,1,1,0,1,0,3,0,3,0,1,0,10,9,,,,,,,,,,,,,,,3s,1121.8390968888998,1122.8389569870196,1122.8305959128775,None,1123.8298860271461,1124.6725492118858,1123.8298860271461,1124.6725492118858,1124.6725492118858,None,1124.6725492118858,None,space,0.4767687423154712,1124.6725492118858,None,0.839,1125.2785461652093,None,,,,,,,DEC024,001,2022_Dec_02_1638,2-25_cond_decay_EYE-try,2021.2.3,119.30590777686994,
left,0.75,1.0,0,1,0,1,0,3,0,3,0,1,1,11,2,,,,,,,,,,,,,,,3s,1126.3708658651449,1127.3721657809801,1127.3638541661203,None,1128.3638738491572,1130.32235042518,1128.3638738491572,1130.32235042518,1130.3134333598427,None,1130.3134333598427,None,space,0.4032861180603504,1130.3134333598427,None,1.9518,1130.8456582580693,None,,,,,,,DEC024,001,2022_Dec_02_1638,2-25_cond_decay_EYE-try,2021.2.3,119.30590777686994,
left,0.75,1.0,0,1,0,1,0,3,0,3,0,1,2,12,3,,,,,,,,,,,,,,,3s,1131.9376642378047,1132.9389666179195,1132.9298777570948,None,1133.9307331671007,1135.5725644500926,1133.9307331671007,1135.5725644500926,1135.5638170628808,None,1135.5638170628808,None,space,0.4609198970720172,1135.5638170628808,None,1.636,1136.1542911138386,None,,,,,,,DEC024,001,2022_Dec_02_1638,2-25_cond_decay_EYE-try,2021.2.3,119.30590777686994,
left,0.75,1.0,0,1,0,1,0,3,0,3,0,1,3,13,5,,,,,,,,,,,,,,,3s,1137.246108860243,1138.246664549224,1138.230459140148,None,1139.2385738221928,1140.055550034158,1139.2385738221928,1140.055550034158,1140.055550034158,None,1140.055550034158,None,space,0.5109316287562251,1140.055550034158,None,0.8173,1140.6958917630836,None,,,,,,,DEC024,001,2022_Dec_02_1638,2-25_cond_decay_EYE-try,2021.2.3,119.30590777686994,
right,1.0,0.75,0,1,0,1,0,3,0,3,0,1,4,14,4,,,,,,,,,,,,,,,3s,1141.787793951109,1142.788703836035,1142.78006762499,None,1143.7726322901435,1146.3390628010966,1143.7726322901435,1146.3390628010966,1146.3390628010966,None,1146.3390628010966,None,space,0.5420858450233936,1146.3390628010966,None,2.5656,1147.005566492211,None,,,,,,,DEC024,001,2022_Dec_02_1638,2-25_cond_decay_EYE-try,2021.2.3,119.30590777686994,
left,0.75,1.0,0,1,0,1,0,3,0,3,0,1,5,15,1,,,,,,,,,,,,,,,3s,1148.1039729411714,1149.1051048319787,1149.0975951049477,None,1150.0976991248317,1152.9135727700777,1150.0976991248317,1152.9135727700777,1152.905708835926,None,1152.905708835926,None,space,0.4435599520802498,1152.905708835926,None,2.8107,1153.4789948598482,None,,,,,,,DEC024,001,2022_Dec_02_1638,2-25_cond_decay_EYE-try,2021.2.3,119.30590777686994,
right,1.0,0.75,0,1,0,1,0,3,0,3,0,1,6,16,8,,,,,,,,,,,,,,,3s,1154.5705783371814,1155.5725375050679,1155.5636726208031,None,1156.563791452907,1157.1644089519978,1156.563791452907,1157.1644089519978,1157.1557398531586,None,1157.1557398531586,None,space,0.5168833639472723,1157.1557398531586,None,0.5942,1157.8048363481648,None,,,,,,,DEC024,001,2022_Dec_02_1638,2-25_cond_decay_EYE-try,2021.2.3,119.30590777686994,
right,1.0,0.75,0,1,0,1,0,3,0,3,0,1,7,17,6,,,,,,,,,,,,,,,3s,1158.8964715180919,1159.8974493821152,1159.889467509929,None,1160.8895331118256,1162.3395503400825,1160.8895331118256,1162.3395503400825,1162.3395503400825,None,1162.3395503400825,None,space,0.48524958081543446,1162.3395503400825,None,1.4477,1162.954654877074,None,,,,,,,DEC024,001,2022_Dec_02_1638,2-25_cond_decay_EYE-try,2021.2.3,119.30590777686994,
left,1.0,0.75,1,1,0,1,0,3,0,3,0,1,8,18,0,,,,,,,,,,,,,,,3s,1164.0459952051751,1165.0473126578145,1165.0393263669685,None,1166.0387197178788,1168.1979898922145,1166.0387197178788,1168.1979898922145,1168.1979898922145,None,1168.1979898922145,None,space,0.37669094605371356,1168.1979898922145,None,2.1556,1168.7046753349714,None,,,,,,,DEC024,001,2022_Dec_02_1638,2-25_cond_decay_EYE-try,2021.2.3,119.30590777686994,
right,1.0,0.75,0,1,0,1,0,3,0,3,0,1,9,19,7,,,,,,,,,,,,,,,3s,1169.796192211099,1170.7974779191427,1170.7887874078006,None,1171.7886929390952,1172.1220997329801,1171.7886929390952,1172.1220997329801,1172.1220997329801,None,1172.1220997329801,None,space,0.5262237354181707,1172.1220997329801,None,0.3302,1172.7798929410055,None,,,,,,,DEC024,001,2022_Dec_02_1638,2-25_cond_decay_EYE-try,2021.2.3,119.30590777686994,
,,,,1,0,1,0,3,0,3,0,,,,,,,,,,,,,,,,,,,,,,,,,,,,,,,,,,,,,,,,,,,,,DEC024,001,2022_Dec_02_1638,2-25_cond_decay_EYE-try,2021.2.3,119.30590777686994,
,,,,1,0,1,0,,,,,,,,,,,,,,,,,,,,,,,,,,,,,,,,,,,,,,,,,,,1173.6712133460678,None,1173.6712133460678,None,1173.6712133460678,None,DEC024,001,2022_Dec_02_1638,2-25_cond_decay_EYE-try,2021.2.3,119.30590777686994,
right,1.0,0.75,0,2,0,2,0,0,0,0,0,0,0,0,5,,,,,,,,,1178.6713460539468,None,1178.6713460539468,None,1178.6713460539468,None,10s,1187.3960462608375,1188.3982060179114,1188.3895050701685,None,1189.3890757937916,1195.5641371468082,1189.3890757937916,1195.5641371468082,1195.5641371468082,None,1195.5641371468082,None,None,,1195.5641371468082,None,6.171,1196.688021230977,None,,,,,,,DEC024,001,2022_Dec_02_1638,2-25_cond_decay_EYE-try,2021.2.3,119.30590777686994,
left,0.75,1.0,0,2,0,2,0,0,0,0,0,0,1,1,2,,,,,,,,,,,,,,,10s,1197.7801456069574,1198.7809075308032,1198.7728555989452,None,1199.7725890111178,1200.2394902599044,1199.7725890111178,1200.2394902599044,1200.2394902599044,None,1200.2394902599044,None,space,0.4503604480996728,1200.2394902599044,None,0.4679,1200.8211783259176,None,,,,,,,DEC024,001,2022_Dec_02_1638,2-25_cond_decay_EYE-try,2021.2.3,119.30590777686994,
right,1.0,0.75,0,2,0,2,0,0,0,0,0,0,2,2,3,,,,,,,,,,,,,,,10s,1201.9130057259463,1202.914907710161,1202.9058130169287,None,1203.9059570152313,1208.0811504940502,1203.9059570152313,1208.0811504940502,1208.0730589581653,None,1208.0730589581653,None,space,0.47751092398539186,1208.0730589581653,None,4.1736,1208.6801660410129,None,,,,,,,DEC024,001,2022_Dec_02_1638,2-25_cond_decay_EYE-try,2021.2.3,119.30590777686994,
right,1.0,0.75,0,2,0,2,0,0,0,0,0,0,3,3,0,,,,,,,,,,,,,,,10s,1209.7649133601226,1210.7651023971848,1210.7567054620013,None,1211.7565944069065,1214.6484690280631,1211.7565944069065,1214.6484690280631,1214.6484690280631,None,1214.6484690280631,None,space,0.7352693602442741,1214.6484690280631,None,2.8913,1215.513173719868,None,,,,,,,DEC024,001,2022_Dec_02_1638,2-25_cond_decay_EYE-try,2021.2.3,119.30590777686994,
right,0.75,1.0,1,2,0,2,0,0,0,0,0,0,4,4,9,,,,,,,,,,,,,,,10s,1216.5971136991866,1217.5980479521677,1217.5894766678102,None,1218.5895227422006,1223.6814050460234,1218.5895227422006,1223.6814050460234,1223.6814050460234,None,1223.6814050460234,None,space,0.6086469669826329,1223.6814050460234,None,5.0901,1224.4146270290948,None,,,,,,,DEC024,001,2022_Dec_02_1638,2-25_cond_decay_EYE-try,2021.2.3,119.30590777686994,
left,0.75,1.0,0,2,0,2,0,0,0,0,0,0,5,5,7,,,,,,,,,,,,,,,10s,1225.5138243781403,1226.515128060244,1226.5065411990508,None,1227.506240797229,1228.7645105910487,1227.506240797229,1228.7645105910487,1228.7645105910487,None,1228.7645105910487,None,space,0.5095043610781431,1228.7645105910487,None,1.2592,1229.3985495632514,None,,,,,,,DEC024,001,2022_Dec_02_1638,2-25_cond_decay_EYE-try,2021.2.3,119.30590777686994,
right,1.0,0.75,0,2,0,2,0,0,0,0,0,0,6,6,1,,,,,,,,,,,,,,,10s,1230.471618080046,1231.4727183878422,1231.456813910976,None,1232.4566270271316,1240.414498899132,1232.4566270271316,1240.414498899132,1240.414498899132,None,1240.414498899132,None,space,0.40271610394120216,1240.414498899132,None,7.9531,1240.9466054332443,None,,,,,,,DEC024,001,2022_Dec_02_1638,2-25_cond_decay_EYE-try,2021.2.3,119.30590777686994,
left,0.75,1.0,0,2,0,2,0,0,0,0,0,0,7,7,4,,,,,,,,,,,,,,,10s,1242.0387527272105,1243.0397003279068,1243.0313751101494,None,1244.0319401230663,1252.8732827431522,1244.0319401230663,1252.8732827431522,1252.8732827431522,None,1252.8732827431522,None,space,0.719439993146807,1252.8732827431522,None,8.839,1253.722128530033,None,,,,,,,DEC024,001,2022_Dec_02_1638,2-25_cond_decay_EYE-try,2021.2.3,119.30590777686994,
right,1.0,0.75,0,2,0,2,0,0,0,0,0,0,8,8,6,,,,,,,,,,,,,,,10s,1254.813626545947,1255.8154173889197,1255.807182093151,None,1256.8062688228674,1261.3816576912068,1256.8062688228674,1261.3816576912068,1261.374035790097,None,1261.374035790097,None,space,0.40979552967473865,1261.374035790097,None,4.5698,1261.914171563927,None,,,,,,,DEC024,001,2022_Dec_02_1638,2-25_cond_decay_EYE-try,2021.2.3,119.30590777686994,
left,0.75,1.0,0,2,0,2,0,0,0,0,0,0,9,9,8,,,,,,,,,,,,,,,10s,1263.0052803209983,1264.0072523728013,1263.9985852949321,None,1264.9980506179854,1273.890104630962,1264.9980506179854,1273.890104630962,1273.882343734149,None,1273.882343734149,None,space,0.3829694711603224,1273.882343734149,None,8.8873,1274.390306214802,None,,,,,,,DEC024,001,2022_Dec_02_1638,2-25_cond_decay_EYE-try,2021.2.3,119.30590777686994,
left,1.0,0.75,1,2,0,2,0,0,0,0,0,1,0,10,5,,,,,,,,,,,,,,,10s,1275.4823543811217,1276.4822158939205,1276.4740209169686,None,1277.473682622891,1281.774049737025,1277.473682622891,1281.774049737025,1281.774049737025,None,1281.774049737025,None,space,0.507966557983309,1281.774049737025,None,4.2961,1282.4068169351667,None,,,,,,,DEC024,001,2022_Dec_02_1638,2-25_cond_decay_EYE-try,2021.2.3,119.30590777686994,
right,0.75,1.0,1,2,0,2,0,0,0,0,0,1,1,11,9,,,,,,,,,,,,,,,10s,1283.5067428462207,1284.50695499219,1284.4989186418243,None,1285.4988940740004,1286.3158351751044,1285.4988940740004,1286.3158351751044,1286.3158351751044,None,1286.3158351751044,None,space,0.5088716438040137,1286.3158351751044,None,0.8168,1286.9552426692098,None,,,,,,,DEC024,001,2022_Dec_02_1638,2-25_cond_decay_EYE-try,2021.2.3,119.30590777686994,
right,1.0,0.75,0,2,0,2,0,0,0,0,0,1,2,12,6,,,,,,,,,,,,,,,10s,1288.0402994900942,1289.0399049920961,1289.0319637241773,None,1290.0319365458563,1296.240580854006,1290.0319365458563,1296.240580854006,1296.231910596136,None,1296.231910596136,None,space,0.8529182812198997,1296.231910596136,None,6.2031,1297.214308313094,None,,,,,,,DEC024,001,2022_Dec_02_1638,2-25_cond_decay_EYE-try,2021.2.3,119.30590777686994,
right,1.0,0.75,0,2,0,2,0,0,0,0,0,1,3,13,0,,,,,,,,,,,,,,,10s,1298.2979671652429,1299.2991393450648,1299.2905765348114,None,1300.2902700831182,1302.4237595358863,1300.2902700831182,1302.4237595358863,1302.4149968922138,None,1302.4149968922138,None,space,0.4778562532737851,1302.4149968922138,None,2.1262,1303.0224854168482,None,,,,,,,DEC024,001,2022_Dec_02_1638,2-25_cond_decay_EYE-try,2021.2.3,119.30590777686994,
left,0.75,1.0,0,2,0,2,0,0,0,0,0,1,4,14,7,,,,,,,,,,,,,,,10s,1304.1146467630751,1305.1154705630615,1305.1068536220118,None,1306.1076717590913,1315.574650650844,1306.1076717590913,1315.574650650844,1315.5656744870357,1316.565692528151,1315.5656744870357,1316.565692528151,None,,1315.5656744870357,1316.565692528151,9.4632,1316.698078433983,None,,,,,,,DEC024,001,2022_Dec_02_1638,2-25_cond_decay_EYE-try,2021.2.3,119.30590777686994,
left,0.75,1.0,0,2,0,2,0,0,0,0,0,1,5,15,2,,,,,,,,,,,,,,,10s,1317.7891203188337,1318.7902621198446,1318.7827808251604,None,1319.7821668679826,1322.8905103201978,1319.7821668679826,1322.8905103201978,1322.8905103201978,None,1322.8905103201978,None,None,,1322.8905103201978,None,3.104,1324.0070700822398,None,,,,,,,DEC024,001,2022_Dec_02_1638,2-25_cond_decay_EYE-try,2021.2.3,119.30590777686994,
left,0.75,1.0,0,2,0,2,0,0,0,0,0,1,6,16,4,,,,,,,,,,,,,,,10s,1325.0732768401504,1326.0748043288477,1326.0654111369513,None,1327.0655752918683,1336.1576227578335,1327.0655752918683,1336.1576227578335,1336.1576227578335,None,1336.1576227578335,None,space,0.4834334119223058,1336.1576227578335,None,9.0869,1336.7735103648156,None,,,,,,,DEC024,001,2022_Dec_02_1638,2-25_cond_decay_EYE-try,2021.2.3,119.30590777686994,
left,0.75,1.0,0,2,0,2,0,0,0,0,0,1,7,17,8,,,,,,,,,,,,,,,10s,1337.8646967690438,1338.8664154699072,1338.8493387028575,None,1339.8489599539898,1340.965524396859,1339.8489599539898,1340.965524396859,1340.965524396859,None,1340.965524396859,None,space,0.5004642051644623,1340.965524396859,None,1.1151,1341.589880707208,None,,,,,,,DEC024,001,2022_Dec_02_1638,2-25_cond_decay_EYE-try,2021.2.3,119.30590777686994,
right,1.0,0.75,0,2,0,2,0,0,0,0,0,1,8,18,3,,,,,,,,,,,,,,,10s,1342.6909425188787,1343.6913155680522,1343.6831590682268,None,1344.6823118240573,1354.199359917082,1344.6823118240573,1354.199359917082,1354.199359917082,None,1354.199359917082,None,space,0.4591763890348375,1354.199359917082,None,9.5177,1354.7900880728848,None,,,,,,,DEC024,001,2022_Dec_02_1638,2-25_cond_decay_EYE-try,2021.2.3,119.30590777686994,
right,1.0,0.75,0,2,0,2,0,0,0,0,0,1,9,19,1,,,,,,,,,,,,,,,10s,1355.881751100067,1356.8832667819224,1356.8749424749985,None,1357.873955398798,1365.5666423798539,1357.873955398798,1365.5666423798539,1365.5579672460444,1366.5579110360704,1365.5579672460444,1366.5579110360704,None,,1365.5579672460444,1366.5579110360704,7.6855,1366.6903194170445,None,,,,,,,DEC024,001,2022_Dec_02_1638,2-25_cond_decay_EYE-try,2021.2.3,119.30590777686994,
,,,,2,0,2,0,0,0,0,0,,,,,,,,,,,,,,,,,,,,,,,,,,,,,,,,,,,,,,,,,,,,,DEC024,001,2022_Dec_02_1638,2-25_cond_decay_EYE-try,2021.2.3,119.30590777686994,
left,1.0,0.75,1,2,0,2,0,1,0,1,0,0,0,0,8,,,,,,,,,1367.581564038992,None,1367.581564038992,None,1367.581564038992,None,5s,1373.0836495659314,1374.0830736891367,1374.0747172478586,None,1375.0744754211046,1375.3914576121606,1375.0744754211046,1375.3914576121606,1375.3914576121606,None,1375.3914576121606,None,space,0.5019024861976504,1375.3914576121606,None,0.314,1376.0232670041732,None,,,,,,,DEC024,001,2022_Dec_02_1638,2-25_cond_decay_EYE-try,2021.2.3,119.30590777686994,
right,0.75,1.0,1,2,0,2,0,1,0,1,0,0,1,1,5,,,,,,,,,,,,,,,5s,1377.1149335070513,1378.1165521489456,1378.1083253240213,None,1379.107829545159,1383.4747095732018,1379.107829545159,1383.4747095732018,1383.4659142601304,None,1383.4659142601304,None,space,0.4028430227190256,1383.4659142601304,None,4.3601,1383.99814844504,None,,,,,,,DEC024,001,2022_Dec_02_1638,2-25_cond_decay_EYE-try,2021.2.3,119.30590777686994,
right,1.0,0.75,0,2,0,2,0,1,0,1,0,0,2,2,9,,,,,,,,,,,,,,,5s,1385.0818965719081,1386.0827463911846,1386.0744395591319,None,1387.0746705569327,1387.4336199420504,1387.0746705569327,1387.4336199420504,1387.4336199420504,None,1387.4336199420504,None,space,0.5020820097997785,1387.4336199420504,None,0.3559,1388.0650056949817,None,,,,,,,DEC024,001,2022_Dec_02_1638,2-25_cond_decay_EYE-try,2021.2.3,119.30590777686994,
right,1.0,0.75,0,2,0,2,0,1,0,1,0,0,3,3,1,,,,,,,,,,,,,,,5s,1389.1568275559694,1390.1578235542402,1390.1494545871392,None,1391.1496805842035,1392.3744683708064,1391.1496805842035,1392.3744683708064,1392.3668857761659,None,1392.3668857761659,None,space,0.48581383517012,1392.3668857761659,None,1.2222,1392.9818910527974,None,,,,,,,DEC024,001,2022_Dec_02_1638,2-25_cond_decay_EYE-try,2021.2.3,119.30590777686994,
left,1.0,0.75,1,2,0,2,0,1,0,1,0,0,4,4,0,,,,,,,,,,,,,,,5s,1394.0736413937993,1395.0747713032179,1395.0667410730384,None,1396.0670324601233,1396.499583269935,1396.0670324601233,1396.499583269935,1396.4918919140473,None,1396.4918919140473,None,space,0.6922189481556416,1396.4918919140473,None,0.4258,1397.3156315828674,None,,,,,,,DEC024,001,2022_Dec_02_1638,2-25_cond_decay_EYE-try,2021.2.3,119.30590777686994,
right,1.0,0.75,0,2,0,2,0,1,0,1,0,0,5,5,6,,,,,,,,,,,,,,,5s,1398.407526744064,1399.4086385071278,1399.400381917134,None,1400.399668074213,1402.9663606891409,1400.399668074213,1402.9663606891409,1402.9663606891409,None,1402.9663606891409,None,None,,1402.9663606891409,None,2.5634,1404.0900855669752,None,,,,,,,DEC024,001,2022_Dec_02_1638,2-25_cond_decay_EYE-try,2021.2.3,119.30590777686994,
left,0.75,1.0,0,2,0,2,0,1,0,1,0,0,6,6,2,,,,,,,,,,,,,,,5s,1405.1818694430403,1406.1830408112146,1406.1755130258389,None,1407.1746792900376,1409.9995714849792,1407.1746792900376,1409.9995714849792,1409.9995714849792,None,1409.9995714849792,None,space,0.41739550791680813,1409.9995714849792,None,2.8194,1410.5483754877932,None,,,,,,,DEC024,001,2022_Dec_02_1638,2-25_cond_decay_EYE-try,2021.2.3,119.30590777686994,
left,0.75,1.0,0,2,0,2,0,1,0,1,0,0,7,7,4,,,,,,,,,,,,,,,5s,1411.6404484240338,1412.641655847896,1412.6333570899442,None,1413.633324475959,1415.3251457088627,1413.633324475959,1415.3251457088627,1415.3164916671813,1416.3167858798988,1415.3164916671813,1416.3167858798988,None,,1415.3164916671813,1416.3167858798988,1.6856,1416.4493712401018,None,,,,,,,DEC024,001,2022_Dec_02_1638,2-25_cond_decay_EYE-try,2021.2.3,119.30590777686994,
left,0.75,1.0,0,2,0,2,0,1,0,1,0,0,8,8,3,,,,,,,,,,,,,,,5s,1417.5407231370918,1418.541455140803,1418.5333739500493,None,1419.5339313810691,1424.3084361827932,1419.5339313810691,1424.3084361827932,1424.3084361827932,None,1424.3084361827932,None,space,0.341943038161844,1424.3084361827932,None,4.7749,1424.78222572105,None,,,,,,,DEC024,001,2022_Dec_02_1638,2-25_cond_decay_EYE-try,2021.2.3,119.30590777686994,
right,1.0,0.75,0,2,0,2,0,1,0,1,0,0,9,9,7,,,,,,,,,,,,,,,5s,1425.873748979997,1426.8751900270581,1426.86707226187,None,1427.8668006230146,1428.108268006239,1427.8668006230146,1428.108268006239,1428.100472126156,None,1428.100472126156,None,space,0.49234176287427545,1428.100472126156,None,0.2347,1428.7168236412108,None,,,,,,,DEC024,001,2022_Dec_02_1638,2-25_cond_decay_EYE-try,2021.2.3,119.30590777686994,
left,0.75,1.0,0,2,0,2,0,1,0,1,0,1,0,10,3,,,,,,,,,,,,,,,5s,1429.8153166989796,1430.8170459270477,1430.8084327192046,None,1431.808147569187,1434.8670071731322,1431.808147569187,1434.8670071731322,1434.8670071731322,None,1434.8670071731322,None,space,0.8778616180643439,1434.8670071731322,None,3.06,1435.8740459159017,None,,,,,,,DEC024,001,2022_Dec_02_1638,2-25_cond_decay_EYE-try,2021.2.3,119.30590777686994,
left,0.75,1.0,0,2,0,2,0,1,0,1,0,1,1,11,8,,,,,,,,,,,,,,,5s,1436.9656568081118,1437.9673715638928,1437.9582124818116,None,1438.9591416842304,1441.8502260730602,1438.9591416842304,1441.8502260730602,1441.8424142650329,None,1441.8424142650329,None,space,0.3832925669848919,1441.8424142650329,None,2.8847,1442.3508264860138,None,,,,,,,DEC024,001,2022_Dec_02_1638,2-25_cond_decay_EYE-try,2021.2.3,119.30590777686994,
right,1.0,0.75,0,2,0,2,0,1,0,1,0,1,2,12,1,,,,,,,,,,,,,,,5s,1443.4489271282218,1444.4500533072278,1444.4419304770418,None,1445.441784834955,1446.7924106610008,1445.441784834955,1446.7924106610008,1446.7924106610008,None,1446.7924106610008,None,space,0.5352765116840601,1446.7924106610008,None,1.3495,1447.4574904800393,None,,,,,,,DEC024,001,2022_Dec_02_1638,2-25_cond_decay_EYE-try,2021.2.3,119.30590777686994,
right,1.0,0.75,0,2,0,2,0,1,0,1,0,1,3,13,6,,,,,,,,,,,,,,,5s,1448.549016914796,1449.5502203879878,1449.5419669249095,None,1450.5418437090702,1454.125797943212,1450.5418437090702,1454.125797943212,1454.116930439137,None,1454.116930439137,None,space,0.5008135796524584,1454.116930439137,None,3.5807,1454.7418174091727,None,,,,,,,DEC024,001,2022_Dec_02_1638,2-25_cond_decay_EYE-try,2021.2.3,119.30590777686994,
right,0.75,1.0,1,2,0,2,0,1,0,1,0,1,4,14,5,,,,,,,,,,,,,,,5s,1455.8409073748626,1456.8424141709693,1456.8339864499867,None,1457.8336959350854,1462.6760770259425,1457.8336959350854,1462.6760770259425,1462.6760770259425,None,1462.6760770259425,None,space,0.3933687633834779,1462.6760770259425,None,4.84,1463.1995631200261,None,,,,,,,DEC024,001,2022_Dec_02_1638,2-25_cond_decay_EYE-try,2021.2.3,119.30590777686994,
left,1.0,0.75,1,2,0,2,0,1,0,1,0,1,5,15,0,,,,,,,,,,,,,,,5s,1464.2908812710084,1465.2919375468045,1465.2838624780998,None,1466.284080198966,1470.0009111328982,1466.284080198966,1470.0009111328982,1469.9919563578442,None,1469.9919563578442,None,space,0.4775378298945725,1469.9919563578442,None,3.7107,1470.599400119856,None,,,,,,,DEC024,001,2022_Dec_02_1638,2-25_cond_decay_EYE-try,2021.2.3,119.30590777686994,
left,0.75,1.0,0,2,0,2,0,1,0,1,0,1,6,16,2,,,,,,,,,,,,,,,5s,1471.683345504105,1472.6838212641887,1472.6756623359397,None,1473.6756140948273,1474.2094450141303,1473.6756140948273,1474.2094450141303,1474.2094450141303,None,1474.2094450141303,None,space,0.5020514382049441,1474.2094450141303,None,0.5321,1474.840781473089,None,,,,,,,DEC024,001,2022_Dec_02_1638,2-25_cond_decay_EYE-try,2021.2.3,119.30590777686994,
right,1.0,0.75,0,2,0,2,0,1,0,1,0,1,7,17,9,,,,,,,,,,,,,,,5s,1475.9325731401332,1476.9337567551993,1476.9337567551993,None,1477.9253008030355,1480.3594648749568,1477.9253008030355,1480.3594648749568,1480.3594648749568,None,1480.3594648749568,None,space,0.42571148043498397,1480.3594648749568,None,2.4301,1480.915688531939,None,,,,,,,DEC024,001,2022_Dec_02_1638,2-25_cond_decay_EYE-try,2021.2.3,119.30590777686994,
left,0.75,1.0,0,2,0,2,0,1,0,1,0,1,8,18,4,,,,,,,,,,,,,,,5s,1482.0076238550246,1483.0087390718982,1483.000651246868,None,1484.0004007471725,1487.108983232174,1484.0004007471725,1487.108983232174,1487.1013057939708,None,1487.1013057939708,None,space,0.4417558526620269,1487.1013057939708,None,3.1052,1487.674774012994,None,,,,,,,DEC024,001,2022_Dec_02_1638,2-25_cond_decay_EYE-try,2021.2.3,119.30590777686994,
right,1.0,0.75,0,2,0,2,0,1,0,1,0,1,9,19,7,,,,,,,,,,,,,,,5s,1488.7666907021776,1489.7676136861555,1489.7590693319216,None,1490.7596178050153,1494.442392858211,1490.7596178050153,1494.442392858211,1494.442392858211,None,1494.442392858211,None,space,0.41081172972917557,1494.442392858211,None,3.6832,1494.9835284748115,None,,,,,,,DEC024,001,2022_Dec_02_1638,2-25_cond_decay_EYE-try,2021.2.3,119.30590777686994,
,,,,2,0,2,0,1,0,1,0,,,,,,,,,,,,,,,,,,,,,,,,,,,,,,,,,,,,,,,,,,,,,DEC024,001,2022_Dec_02_1638,2-25_cond_decay_EYE-try,2021.2.3,119.30590777686994,
right,1.0,0.75,0,2,0,2,0,2,0,2,0,0,0,0,7,,,,,,,,,1495.8745784149505,None,1495.8745784149505,None,1495.8745784149505,None,3s,1501.5094054760411,1502.5098198242486,1502.5014625350013,None,1503.501382146962,1504.1846245150082,1503.501382146962,1504.1846245150082,1504.1759098991752,1505.1763955722563,1504.1759098991752,1505.1763955722563,None,,1504.1759098991752,1505.1763955722563,0.6762,1505.307823882904,None,,,,,,,DEC024,001,2022_Dec_02_1638,2-25_cond_decay_EYE-try,2021.2.3,119.30590777686994,
left,1.0,0.75,1,2,0,2,0,2,0,2,0,0,1,1,8,,,,,,,,,,,,,,,3s,1506.4004509728402,1507.4005706389435,1507.3930956171826,None,1508.3929257951677,1508.742435833905,1508.3929257951677,1508.742435833905,1508.734863936901,None,1508.734863936901,None,space,0.4084502919577062,1508.734863936901,None,0.3431,1509.2751040849835,None,,,,,,,DEC024,001,2022_Dec_02_1638,2-25_cond_decay_EYE-try,2021.2.3,119.30590777686994,
left,0.75,1.0,0,2,0,2,0,2,0,2,0,0,2,2,5,,,,,,,,,,,,,,,3s,1510.3591272081248,1511.3595612952486,1511.3512921580113,None,1512.351225071121,1513.5931124980561,1512.351225071121,1513.5931124980561,1513.5845212331042,None,1513.5845212331042,None,space,0.7833749298006296,1513.5845212331042,None,1.2366,1514.4916981812567,None,,,,,,,DEC024,001,2022_Dec_02_1638,2-25_cond_decay_EYE-try,2021.2.3,119.30590777686994,
right,0.75,1.0,1,2,0,2,0,2,0,2,0,0,3,3,3,,,,,,,,,,,,,,,3s,1515.5921430769376,1516.5931198331527,1516.5848515760154,None,1517.5841656662524,1517.9423770601861,1517.5841656662524,1517.9423770601861,1517.9423770601861,None,1517.9423770601861,None,space,0.48470497829839587,1517.9423770601861,None,0.3543,1518.5510691031814,None,,,,,,,DEC024,001,2022_Dec_02_1638,2-25_cond_decay_EYE-try,2021.2.3,119.30590777686994,
right,1.0,0.75,0,2,0,2,0,2,0,2,0,0,4,4,2,,,,,,,,,,,,,,,3s,1519.6415786361322,1520.643015540205,1520.6345804580487,None,1521.634106413927,1524.2011774848215,1521.634106413927,1524.2011774848215,1524.2011774848215,None,1524.2011774848215,None,space,0.42746273102238774,1524.2011774848215,None,2.5681,1524.7588966628537,None,,,,,,,DEC024,001,2022_Dec_02_1638,2-25_cond_decay_EYE-try,2021.2.3,119.30590777686994,
right,1.0,0.75,0,2,0,2,0,2,0,2,0,0,5,5,4,,,,,,,,,,,,,,,3s,1525.8505629580468,1526.8511899458244,1526.8428222080693,None,1527.8431512368843,1529.5601904909126,1527.8431512368843,1529.5601904909126,1529.5601904909126,None,1529.5601904909126,None,space,0.4526193686760962,1529.5601904909126,None,1.7172,1530.141565922182,None,,,,,,,DEC024,001,2022_Dec_02_1638,2-25_cond_decay_EYE-try,2021.2.3,119.30590777686994,
left,0.75,1.0,0,2,0,2,0,2,0,2,0,0,6,6,6,,,,,,,,,,,,,,,3s,1531.2340065590106,1532.2345354999416,1532.2260663211346,None,1533.2260916419327,1533.626617281232,1533.2260916419327,1533.626617281232,1533.617668054998,None,1533.617668054998,None,space,0.444975852034986,1533.617668054998,None,0.3935,1534.191518315114,None,,,,,,,DEC024,001,2022_Dec_02_1638,2-25_cond_decay_EYE-try,2021.2.3,119.30590777686994,
left,0.75,1.0,0,2,0,2,0,2,0,2,0,0,7,7,0,,,,,,,,,,,,,,,3s,1535.2845909441821,1536.2843621219508,1536.2769560511224,None,1537.2760735051706,1539.6851268438622,1537.2760735051706,1539.6851268438622,1539.6764495628886,None,1539.6764495628886,None,space,0.402310858014971,1539.6764495628886,None,2.4023,1540.2081575491466,None,,,,,,,DEC024,001,2022_Dec_02_1638,2-25_cond_decay_EYE-try,2021.2.3,119.30590777686994,
right,1.0,0.75,0,2,0,2,0,2,0,2,0,0,8,8,1,,,,,,,,,,,,,,,3s,1541.2677651601844,1542.2680469388142,1542.259735444095,None,1543.259460695088,1543.9094930090941,1543.259460695088,1543.9094930090941,1543.9094930090941,None,1543.9094930090941,None,space,0.4258846412412822,1543.9094930090941,None,0.6511,1544.4596401001327,None,,,,,,,DEC024,001,2022_Dec_02_1638,2-25_cond_decay_EYE-try,2021.2.3,119.30590777686994,
right,1.0,0.75,0,2,0,2,0,2,0,2,0,0,9,9,9,,,,,,,,,,,,,,,3s,1545.5586831811816,1546.560087909922,1546.5516036050394,None,1547.5510641359724,1550.36789279012,1547.5510641359724,1550.36789279012,1550.3599976282567,None,1550.3599976282567,None,space,0.43399306014180183,1550.3599976282567,None,2.8151,1550.9187041148543,None,,,,,,,DEC024,001,2022_Dec_02_1638,2-25_cond_decay_EYE-try,2021.2.3,119.30590777686994,
left,0.75,1.0,0,2,0,2,0,2,0,2,0,1,0,10,6,,,,,,,,,,,,,,,3s,1551.9849849832244,1552.9850367321633,1552.976772793103,None,1553.9764028908685,1554.3598362109624,1553.9764028908685,1554.3598362109624,1554.3598362109624,None,1554.3598362109624,None,space,0.47750153206288815,1554.3598362109624,None,0.3822,1554.9667549878359,None,,,,,,,DEC024,001,2022_Dec_02_1638,2-25_cond_decay_EYE-try,2021.2.3,119.30590777686994,
right,1.0,0.75,0,2,0,2,0,2,0,2,0,1,1,11,9,,,,,,,,,,,,,,,3s,1556.059614112135,1557.0597227751277,1557.05142759718,None,1558.0519251879305,1558.9517279770225,1558.0519251879305,1558.9517279770225,1558.9517279770225,None,1558.9517279770225,None,space,0.4507980979979038,1558.9517279770225,None,0.8964,1559.526369759813,None,,,,,,,DEC024,001,2022_Dec_02_1638,2-25_cond_decay_EYE-try,2021.2.3,119.30590777686994,
right,0.75,1.0,1,2,0,2,0,2,0,2,0,1,2,12,3,,,,,,,,,,,,,,,3s,1560.6255043111742,1561.6268025762402,1561.618721535895,None,1562.6178516368382,1564.5097375768237,1562.6178516368382,1564.5097375768237,1564.5017816401087,None,1564.5017816401087,None,space,0.4502171901986003,1564.5017816401087,None,1.8859,1565.0760420709848,None,,,,,,,DEC024,001,2022_Dec_02_1638,2-25_cond_decay_EYE-try,2021.2.3,119.30590777686994,
left,0.75,1.0,0,2,0,2,0,2,0,2,0,1,3,13,0,,,,,,,,,,,,,,,3s,1566.1755351182073,1567.176269065123,1567.1687566949986,None,1568.168512756005,1569.8763994881883,1568.168512756005,1569.8763994881883,1569.8686232250184,None,1569.8686232250184,None,space,0.4272167249582708,1569.8686232250184,None,1.7062,1570.42505725706,None,,,,,,,DEC024,001,2022_Dec_02_1638,2-25_cond_decay_EYE-try,2021.2.3,119.30590777686994,
right,1.0,0.75,0,2,0,2,0,2,0,2,0,1,4,14,4,,,,,,,,,,,,,,,3s,1571.516731617041,1572.5186875578947,1572.501780170016,None,1573.5105337458663,1574.2182116862386,1573.5105337458663,1574.2182116862386,1574.2104452708736,None,1574.2104452708736,None,space,0.5340323313139379,1574.2104452708736,None,0.7025,1574.8752313088626,None,,,,,,,DEC024,001,2022_Dec_02_1638,2-25_cond_decay_EYE-try,2021.2.3,119.30590777686994,
left,0.75,1.0,0,2,0,2,0,2,0,2,0,1,5,15,7,,,,,,,,,,,,,,,3s,1575.9675995842554,1576.9687102921307,1576.9597513480112,None,1577.9605639260262,1579.3352026911452,1577.9605639260262,1579.3352026911452,1579.3352026911452,None,1579.3352026911452,None,space,0.4426690679974854,1579.3352026911452,None,1.3672,1579.9093782161362,None,,,,,,,DEC024,001,2022_Dec_02_1638,2-25_cond_decay_EYE-try,2021.2.3,119.30590777686994,
left,1.0,0.75,1,2,0,2,0,2,0,2,0,1,6,16,8,,,,,,,,,,,,,,,3s,1581.0005132248625,1582.0019469899125,1581.9935599630699,None,1582.993487093132,1585.3686472838745,1582.993487093132,1585.3686472838745,1585.3600587220863,None,1585.3600587220863,None,space,0.47741009294986725,1585.3600587220863,None,2.3714,1585.9669082402252,None,,,,,,,DEC024,001,2022_Dec_02_1638,2-25_cond_decay_EYE-try,2021.2.3,119.30590777686994,
right,1.0,0.75,0,2,0,2,0,2,0,2,0,1,7,17,2,,,,,,,,,,,,,,,3s,1587.058969126083,1588.0606427988969,1588.0515402629972,None,1589.0514526311308,1590.969026695937,1589.0514526311308,1590.969026695937,1590.969026695937,None,1590.969026695937,None,space,0.4441181397996843,1590.969026695937,None,1.9165,1591.5424825879745,None,,,,,,,DEC024,001,2022_Dec_02_1638,2-25_cond_decay_EYE-try,2021.2.3,119.30590777686994,
right,1.0,0.75,0,2,0,2,0,2,0,2,0,1,8,18,1,,,,,,,,,,,,,,,3s,1592.6268767560832,1593.6273352662101,1593.619156706147,None,1594.6185495718382,1595.2854559142143,1594.6185495718382,1595.2854559142143,1595.2854559142143,None,1595.2854559142143,None,space,0.4426498836837709,1595.2854559142143,None,0.6647,1595.8521209750324,None,,,,,,,DEC024,001,2022_Dec_02_1638,2-25_cond_decay_EYE-try,2021.2.3,119.30590777686994,
left,0.75,1.0,0,2,0,2,0,2,0,2,0,1,9,19,5,,,,,,,,,,,,,,,3s,1596.9589724559337,1597.9599042939954,1597.9522786648013,None,1598.9522310150787,1601.8100489731878,1598.9522310150787,1601.8100489731878,1601.8022797480226,None,1601.8022797480226,None,space,0.43549192417412996,1601.8022797480226,None,2.8579,1602.3676954852417,None,,,,,,,DEC024,001,2022_Dec_02_1638,2-25_cond_decay_EYE-try,2021.2.3,119.30590777686994,
,,,,2,0,2,0,2,0,2,0,,,,,,,,,,,,,,,,,,,,,,,,,,,,,,,,,,,,,,,,,,,,,DEC024,001,2022_Dec_02_1638,2-25_cond_decay_EYE-try,2021.2.3,119.30590777686994,
left,1.0,0.75,1,2,0,2,0,3,0,3,0,0,0,0,8,,,,,,,,,1603.2596238967963,None,1603.2596238967963,None,1603.2596238967963,None,1s,1608.45126755815,1609.451830131933,1609.4441592269577,None,1610.4438572819345,1610.9609173052013,1610.4438572819345,1610.9609173052013,1610.9522352102213,None,1610.9522352102213,None,space,0.34458893816918135,1610.9522352102213,None,0.5105,1611.4258007151075,None,,,,,,,DEC024,001,2022_Dec_02_1638,2-25_cond_decay_EYE-try,2021.2.3,119.30590777686994,
left,0.75,1.0,0,2,0,2,0,3,0,3,0,0,1,1,4,,,,,,,,,,,,,,,1s,1612.5095041459426,1613.5101174139418,1613.5020390418358,None,1614.5020456742495,1615.344363048207,1614.5020456742495,1615.344363048207,1615.335574013181,None,1615.335574013181,None,space,0.40884893713518977,1615.335574013181,None,0.836,1615.86864397116,None,,,,,,,DEC024,001,2022_Dec_02_1638,2-25_cond_decay_EYE-try,2021.2.3,119.30590777686994,
right,1.0,0.75,0,2,0,2,0,3,0,3,0,0,2,2,5,,,,,,,,,,,,,,,1s,1616.96788742207,1617.969237298239,1617.9607811630704,None,1618.9609461408108,1619.6272912588902,1618.9609461408108,1619.6272912588902,1619.6272912588902,None,1619.6272912588902,None,space,0.35104658314958215,1619.6272912588902,None,0.662,1620.1026004971936,None,,,,,,,DEC024,001,2022_Dec_02_1638,2-25_cond_decay_EYE-try,2021.2.3,119.30590777686994,
left,0.75,1.0,0,2,0,2,0,3,0,3,0,0,3,3,9,,,,,,,,,,,,,,,1s,1621.2090409938246,1622.211233341135,1622.1939409268089,None,1623.193944949191,1623.927478371188,1623.193944949191,1623.927478371188,1623.927478371188,None,1623.927478371188,None,space,0.3612259030342102,1623.927478371188,None,0.7311,1624.418345313985,None,,,,,,,DEC024,001,2022_Dec_02_1638,2-25_cond_decay_EYE-try,2021.2.3,119.30590777686994,
left,1.0,0.75,1,2,0,2,0,3,0,3,0,0,4,4,0,,,,,,,,,,,,,,,1s,1625.5090584042482,1626.510884648189,1626.4939955212176,None,1627.4944255719893,1628.318554662168,1627.4944255719893,1628.318554662168,1628.318554662168,None,1628.318554662168,None,space,0.35301972506567836,1628.318554662168,None,0.8209,1628.8006554828025,None,,,,,,,DEC024,001,2022_Dec_02_1638,2-25_cond_decay_EYE-try,2021.2.3,119.30590777686994,
right,1.0,0.75,0,2,0,2,0,3,0,3,0,0,5,5,1,,,,,,,,,,,,,,,1s,1629.8926094742492,1630.8941400591284,1630.8857912449166,None,1631.8857557307929,1632.060780055821,1631.8857557307929,1632.060780055821,1632.060780055821,None,1632.060780055821,None,space,0.4842439107596874,1632.060780055821,None,0.1706,1632.6691323118284,None,,,,,,,DEC024,001,2022_Dec_02_1638,2-25_cond_decay_EYE-try,2021.2.3,119.30590777686994,
right,0.75,1.0,1,2,0,2,0,3,0,3,0,0,6,6,2,,,,,,,,,,,,,,,1s,1633.7684102770872,1634.7686435151845,1634.760386750102,None,1635.7608517669141,1636.202202977147,1635.7608517669141,1636.202202977147,1636.202202977147,None,1636.202202977147,None,space,0.43641633819788694,1636.202202977147,None,0.4409,1636.7673265682533,None,,,,,,,DEC024,001,2022_Dec_02_1638,2-25_cond_decay_EYE-try,2021.2.3,119.30590777686994,
right,1.0,0.75,0,2,0,2,0,3,0,3,0,0,7,7,7,,,,,,,,,,,,,,,1s,1637.8525388170965,1638.8529875399545,1638.8443317590281,None,1639.8441253821366,1640.0696881460026,1639.8441253821366,1640.0696881460026,1640.0696881460026,None,1640.0696881460026,None,space,0.4750404907390475,1640.0696881460026,None,0.2206,1640.6692419848405,None,,,,,,,DEC024,001,2022_Dec_02_1638,2-25_cond_decay_EYE-try,2021.2.3,119.30590777686994,
left,0.75,1.0,0,2,0,2,0,3,0,3,0,0,8,8,3,,,,,,,,,,,,,,,1s,1641.7763222940266,1642.7777743730694,1642.7687571900897,None,1643.7687928541563,1644.2196769011207,1643.7687928541563,1644.2196769011207,1644.2196769011207,None,1644.2196769011207,None,space,0.46005077566951513,1644.2196769011207,None,0.4446,1644.8096135309897,None,,,,,,,DEC024,001,2022_Dec_02_1638,2-25_cond_decay_EYE-try,2021.2.3,119.30590777686994,
right,1.0,0.75,0,2,0,2,0,3,0,3,0,0,9,9,6,,,,,,,,,,,,,,,1s,1645.9012684780173,1646.9026698861271,1646.8943442879245,None,1647.8947152961046,1648.4108999869786,1647.8947152961046,1648.4108999869786,1648.4021423622034,None,1648.4021423622034,None,space,0.3930477583780885,1648.4021423622034,None,0.5116,1648.9266644329764,None,,,,,,,DEC024,001,2022_Dec_02_1638,2-25_cond_decay_EYE-try,2021.2.3,119.30590777686994,
right,1.0,0.75,0,2,0,2,0,3,0,3,0,1,0,10,7,,,,,,,,,,,,,,,1s,1650.018051853869,1651.019618588034,1651.0114834471606,None,1652.0108527881093,1652.4528546072543,1652.0108527881093,1652.4528546072543,1652.4443376362324,None,1652.4443376362324,None,space,0.5083980700001121,1652.4443376362324,None,0.4383,1653.0763717298396,None,,,,,,,DEC024,001,2022_Dec_02_1638,2-25_cond_decay_EYE-try,2021.2.3,119.30590777686994,
left,0.75,1.0,0,2,0,2,0,3,0,3,0,1,1,11,8,,,,,,,,,,,,,,,1s,1654.1849525878206,1655.1865017218515,1655.1779218981974,None,1656.1775275301188,1656.844677858986,1656.1775275301188,1656.844677858986,1656.835937904194,None,1656.835937904194,None,space,0.39473516400903463,1656.835937904194,None,0.6614,1657.359530325979,None,,,,,,,DEC024,001,2022_Dec_02_1638,2-25_cond_decay_EYE-try,2021.2.3,119.30590777686994,
left,0.75,1.0,0,2,0,2,0,3,0,3,0,1,2,12,9,,,,,,,,,,,,,,,1s,1658.4529176261276,1659.452988121193,1659.4444978809915,None,1660.444371201098,1660.9775780872442,1660.444371201098,1660.9775780872442,1660.9775780872442,None,1660.9775780872442,None,space,0.40859989495947957,1660.9775780872442,None,0.5327,1661.5100327800028,None,,,,,,,DEC024,001,2022_Dec_02_1638,2-25_cond_decay_EYE-try,2021.2.3,119.30590777686994,
right,1.0,0.75,0,2,0,2,0,3,0,3,0,1,3,13,6,,,,,,,,,,,,,,,1s,1662.6095954249613,1663.611533945892,1663.6031831540167,None,1664.6027626548894,1665.4272993309423,1664.6027626548894,1665.4272993309423,1665.4272993309423,None,1665.4272993309423,None,space,0.41140594985336065,1665.4272993309423,None,0.8252,1665.967950799968,None,,,,,,,DEC024,001,2022_Dec_02_1638,2-25_cond_decay_EYE-try,2021.2.3,119.30590777686994,
right,0.75,1.0,1,2,0,2,0,3,0,3,0,1,4,14,2,,,,,,,,,,,,,,,1s,1667.0597398080863,1668.0614715740085,1668.0531708090566,None,1669.053153683897,1669.594309440814,1669.053153683897,1669.594309440814,1669.5866521848366,None,1669.5866521848366,None,space,0.41039341408759356,1669.5866521848366,None,0.5349,1670.1262855418026,None,,,,,,,DEC024,001,2022_Dec_02_1638,2-25_cond_decay_EYE-try,2021.2.3,119.30590777686994,
right,1.0,0.75,0,2,0,2,0,3,0,3,0,1,5,15,1,,,,,,,,,,,,,,,1s,1671.2178035760298,1672.2194547369145,1672.2113018408418,None,1673.2117046532221,1674.102969864849,1673.2117046532221,1674.102969864849,1674.102969864849,None,1674.102969864849,None,space,0.3780217505991459,1674.102969864849,None,0.8915,1674.6100513399579,None,,,,,,,DEC024,001,2022_Dec_02_1638,2-25_cond_decay_EYE-try,2021.2.3,119.30590777686994,
left,0.75,1.0,0,2,0,2,0,3,0,3,0,1,6,16,4,,,,,,,,,,,,,,,1s,1675.7014749492519,1676.7025952120312,1676.6951074879616,None,1677.6943163392134,1678.6614991989918,1677.6943163392134,1678.6614991989918,1678.6614991989918,None,1678.6614991989918,None,space,0.40221112174913287,1678.6614991989918,None,0.9602,1679.1934003471397,None,,,,,,,DEC024,001,2022_Dec_02_1638,2-25_cond_decay_EYE-try,2021.2.3,119.30590777686994,
