attn_cue,left_ob,right_ob,congruent,runs.thisRepN,runs.thisTrialN,runs.thisN,runs.thisIndex,blocks.thisRepN,blocks.thisTrialN,blocks.thisN,blocks.thisIndex,trials.thisRepN,trials.thisTrialN,trials.thisN,trials.thisIndex,welcome.started,welcome.stopped,text_2.started,text_2.stopped,init_key_resp.keys,init_key_resp.rt,init_key_resp.started,init_key_resp.stopped,text_3.started,text_3.stopped,text_4.started,text_4.stopped,text_5.started,text_5.stopped,block_num,texter.started,texter.stopped,cross.started,cross.stopped,left_star.started,left_star.stopped,right_star.started,right_star.stopped,left_2.started,left_2.stopped,right_2.started,right_2.stopped,key_resp.keys,key_resp.rt,key_resp.started,key_resp.stopped,Rand Tim,text.started,text.stopped,end.started,end.stopped,text_6.started,text_6.stopped,text_7.started,text_7.stopped,participant,session,date,expName,psychopyVersion,frameRate,
,,,,,,,,,,,,,,,,223.50924996496178,None,223.50924996496178,None,space,2.162604729877785,223.50924996496178,None,,,,,,,,,,,,,,,,,,,,,,,,,,,,,,,,,DEC005,001,2022_May_18_1538,2-25_cond_decay_EYE-try,2021.2.3,168.12776993588744,
left,0.75,1.0,0,0,0,0,0,0,0,0,0,0,0,0,0,,,,,,,,,225.69705902878195,None,225.69705902878195,None,225.69705902878195,None,5s,229.81282415194437,230.81815931387246,230.80571975093335,None,231.80588138988242,233.2976623508148,231.80588138988242,233.2976623508148,233.2917565368116,None,233.2917565368116,None,space,0.33196931099519134,233.2917565368116,None,1.4878,233.76987483585253,None,,,,,,,DEC005,001,2022_May_18_1538,2-25_cond_decay_EYE-try,2021.2.3,168.12776993588744,
left,0.75,1.0,0,0,0,0,0,0,0,0,0,0,1,1,7,,,,,,,,,,,,,,,5s,234.80752685386688,235.81133719882928,235.8001772807911,None,236.79998283390887,238.7513982139062,236.79998283390887,238.7513982139062,238.7513982139062,None,238.7513982139062,None,space,0.3923340239562094,238.7513982139062,None,1.9508,239.2788668118883,None,,,,,,,DEC005,001,2022_May_18_1538,2-25_cond_decay_EYE-try,2021.2.3,168.12776993588744,
right,1.0,0.75,0,0,0,0,0,0,0,0,0,0,2,2,3,,,,,,,,,,,,,,,5s,240.33482090290636,241.33920518495142,241.32660064683296,None,242.32718241098337,245.1150891939178,242.32718241098337,245.1150891939178,245.1150891939178,None,245.1150891939178,None,space,0.35663767415098846,245.1150891939178,None,2.7867,245.60557448887266,None,,,,,,,DEC005,001,2022_May_18_1538,2-25_cond_decay_EYE-try,2021.2.3,168.12776993588744,
right,0.75,1.0,1,0,0,0,0,0,0,0,0,0,3,3,5,,,,,,,,,,,,,,,5s,246.65372261987068,247.65383952390403,247.64773984695785,None,248.64806561078876,248.81804455979727,248.64806561078876,248.81804455979727,248.81804455979727,None,248.81804455979727,None,space,0.4376870500855148,248.81804455979727,None,0.1691,249.3930250359699,None,,,,,,,DEC005,001,2022_May_18_1538,2-25_cond_decay_EYE-try,2021.2.3,168.12776993588744,
left,0.75,1.0,0,0,0,0,0,0,0,0,0,0,4,4,4,,,,,,,,,,,,,,,5s,250.4486076629255,251.44755386398174,251.44172045984305,None,252.44142464199103,253.53433172381483,252.44142464199103,253.53433172381483,253.52855740580708,None,253.52855740580708,None,space,0.5671832759398967,253.52855740580708,None,1.0905,254.2252566497773,None,,,,,,,DEC005,001,2022_May_18_1538,2-25_cond_decay_EYE-try,2021.2.3,168.12776993588744,
right,1.0,0.75,0,0,0,0,0,0,0,0,0,0,5,5,8,,,,,,,,,,,,,,,5s,255.27809527586214,256.27802822995,256.27238953881897,None,257.2717655329034,258.867835562909,257.2717655329034,258.867835562909,258.867835562909,None,258.867835562909,None,space,0.33989022905007005,258.867835562909,None,1.5906,259.33923980081454,None,,,,,,,DEC005,001,2022_May_18_1538,2-25_cond_decay_EYE-try,2021.2.3,168.12776993588744,
right,1.0,0.75,0,0,0,0,0,0,0,0,0,0,6,6,9,,,,,,,,,,,,,,,5s,260.3868431248702,261.387320793001,261.38164288178086,None,262.38150347582996,266.9142674638424,262.38150347582996,266.9142674638424,266.9142674638424,None,266.9142674638424,None,space,0.42947684903629124,266.9142674638424,None,4.5315,267.47343857586384,None,,,,,,,DEC005,001,2022_May_18_1538,2-25_cond_decay_EYE-try,2021.2.3,168.12776993588744,
left,1.0,0.75,1,0,0,0,0,0,0,0,0,0,7,7,2,,,,,,,,,,,,,,,5s,268.5220535087865,269.5209520838689,269.516088655917,None,270.51456305291504,271.81167622981593,270.51456305291504,271.81167622981593,271.81167622981593,None,271.81167622981593,None,space,0.9880473900120705,271.81167622981593,None,1.2963,272.93303295900114,None,,,,,,,DEC005,001,2022_May_18_1538,2-25_cond_decay_EYE-try,2021.2.3,168.12776993588744,
right,1.0,0.75,0,0,0,0,0,0,0,0,0,0,8,8,1,,,,,,,,,,,,,,,5s,273.98678137082607,274.9874071038794,274.97507489589043,None,275.98078320082277,277.68558954796754,275.98078320082277,277.68558954796754,277.67886370397173,None,277.67886370397173,None,space,0.464876368874684,277.67886370397173,None,1.6986,278.27285786694847,None,,,,,,,DEC005,001,2022_May_18_1538,2-25_cond_decay_EYE-try,2021.2.3,168.12776993588744,
left,0.75,1.0,0,0,0,0,0,0,0,0,0,0,9,9,6,,,,,,,,,,,,,,,5s,279.33267971896566,280.3321062917821,280.3200943779666,None,281.3206132799387,281.99402386695147,281.3206132799387,281.99402386695147,281.9883072718512,None,281.9883072718512,None,space,0.6754333060234785,281.9883072718512,None,0.6679,282.7947660058271,None,,,,,,,DEC005,001,2022_May_18_1538,2-25_cond_decay_EYE-try,2021.2.3,168.12776993588744,
right,0.75,1.0,1,0,0,0,0,0,0,0,0,1,0,10,5,,,,,,,,,,,,,,,5s,283.8538391718175,284.8531244059559,284.8470767659601,None,285.84804288391024,287.053307446884,285.84804288391024,287.053307446884,287.053307446884,None,287.053307446884,None,space,0.434422129066661,287.053307446884,None,1.204,287.618460417958,None,,,,,,,DEC005,001,2022_May_18_1538,2-25_cond_decay_EYE-try,2021.2.3,168.12776993588744,
left,1.0,0.75,1,0,0,0,0,0,0,0,0,1,1,11,2,,,,,,,,,,,,,,,5s,288.67153089796193,289.67145643988624,289.65910327178426,None,290.6591126639396,292.7259885368403,290.6591126639396,292.7259885368403,292.7259885368403,None,292.7259885368403,None,space,0.40975319989956915,292.7259885368403,None,2.0644,293.2668868037872,None,,,,,,,DEC005,001,2022_May_18_1538,2-25_cond_decay_EYE-try,2021.2.3,168.12776993588744,
left,0.75,1.0,0,0,0,0,0,0,0,0,0,1,2,12,4,,,,,,,,,,,,,,,5s,294.3210535189137,295.3265655147843,295.3139409518335,None,296.31362675200216,300.0107574798167,296.31362675200216,300.0107574798167,300.0107574798167,None,300.0107574798167,None,space,0.38099625101312995,300.0107574798167,None,3.6938,300.52155717578717,None,,,,,,,DEC005,001,2022_May_18_1538,2-25_cond_decay_EYE-try,2021.2.3,168.12776993588744,
right,1.0,0.75,0,0,0,0,0,0,0,0,0,1,3,13,3,,,,,,,,,,,,,,,5s,301.58018683292903,302.58029737486504,302.56890137982555,None,303.5689218668267,305.52001179778017,303.5689218668267,305.52001179778017,305.52001179778017,None,305.52001179778017,None,space,0.3597285009454936,305.52001179778017,None,1.9498,306.0167276598513,None,,,,,,,DEC005,001,2022_May_18_1538,2-25_cond_decay_EYE-try,2021.2.3,168.12776993588744,
right,1.0,0.75,0,0,0,0,0,0,0,0,0,1,4,14,8,,,,,,,,,,,,,,,5s,307.07112964289263,308.0711951539852,308.06507605686784,None,309.06586155388504,309.5744452539366,309.06586155388504,309.5744452539366,309.5744452539366,None,309.5744452539366,None,None,,309.5744452539366,None,0.5078,310.70779191399924,None,,,,,,,DEC005,001,2022_May_18_1538,2-25_cond_decay_EYE-try,2021.2.3,168.12776993588744,
left,0.75,1.0,0,0,0,0,0,0,0,0,0,1,5,15,7,,,,,,,,,,,,,,,5s,311.75667496491224,312.75621421891265,312.75013115094043,None,313.74968434497714,318.2670283068437,313.74968434497714,318.2670283068437,318.2602012169082,None,318.2602012169082,None,space,0.35555221512913704,318.2602012169082,None,4.5126,318.7507769567892,None,,,,,,,DEC005,001,2022_May_18_1538,2-25_cond_decay_EYE-try,2021.2.3,168.12776993588744,
left,0.75,1.0,0,0,0,0,0,0,0,0,0,1,6,16,0,,,,,,,,,,,,,,,5s,319.79275481193326,320.7920722088311,320.78646740992554,None,321.78631011699326,325.4966603689827,321.78631011699326,325.4966603689827,325.49090582178906,None,325.49090582178906,None,space,0.3168435439001769,325.49090582178906,None,3.7086,325.9397382319439,None,,,,,,,DEC005,001,2022_May_18_1538,2-25_cond_decay_EYE-try,2021.2.3,168.12776993588744,
left,0.75,1.0,0,0,0,0,0,0,0,0,0,1,7,17,6,,,,,,,,,,,,,,,5s,326.99334622290917,327.99201308679767,327.98641821579076,None,328.9863531549927,331.79892909596674,328.9863531549927,331.79892909596674,331.79892909596674,None,331.79892909596674,None,space,0.34480076003819704,331.79892909596674,None,2.8095,332.2781443509739,None,,,,,,,DEC005,001,2022_May_18_1538,2-25_cond_decay_EYE-try,2021.2.3,168.12776993588744,
right,1.0,0.75,0,0,0,0,0,0,0,0,0,1,8,18,1,,,,,,,,,,,,,,,5s,333.3316575358622,334.33128334977664,334.3255996799562,None,335.32562136882916,340.20612528780475,335.32562136882916,340.20612528780475,340.1994351048488,None,340.1994351048488,None,space,0.3123182428535074,340.1994351048488,None,4.8742,340.6424538549036,None,,,,,,,DEC005,001,2022_May_18_1538,2-25_cond_decay_EYE-try,2021.2.3,168.12776993588744,
right,1.0,0.75,0,0,0,0,0,0,0,0,0,1,9,19,9,,,,,,,,,,,,,,,5s,341.69677360984497,342.701763136778,342.68903207592666,None,343.6891004559584,348.2105937257875,343.6891004559584,348.2105937257875,348.2105937257875,None,348.2105937257875,None,space,0.3491503850091249,348.2105937257875,None,4.5208,348.69015221088193,None,,,,,,,DEC005,001,2022_May_18_1538,2-25_cond_decay_EYE-try,2021.2.3,168.12776993588744,
,,,,0,0,0,0,0,0,0,0,,,,,,,,,,,,,,,,,,,,,,,,,,,,,,,,,,,,,,,,,,,,,DEC005,001,2022_May_18_1538,2-25_cond_decay_EYE-try,2021.2.3,168.12776993588744,
right,1.0,0.75,0,0,0,0,0,1,0,1,0,0,0,0,5,,,,,,,,,349.58575645298697,None,349.58575645298697,None,349.58575645298697,None,3s,351.9576353048906,352.96200044685975,352.9561925958842,None,353.95523683191277,355.84006802388467,353.95523683191277,355.84006802388467,355.84006802388467,None,355.84006802388467,None,space,0.35968225495889783,355.84006802388467,None,1.8848,356.33726075896993,None,,,,,,,DEC005,001,2022_May_18_1538,2-25_cond_decay_EYE-try,2021.2.3,168.12776993588744,
right,1.0,0.75,0,0,0,0,0,1,0,1,0,0,1,1,7,,,,,,,,,,,,,,,3s,357.3921893949155,358.39204823598266,358.38595097279176,None,359.385923092952,359.5508369728923,359.385923092952,359.5508369728923,359.5449276647996,None,359.5449276647996,None,space,0.4948245689738542,359.5449276647996,None,0.1589,360.1675797998905,None,,,,,,,DEC005,001,2022_May_18_1538,2-25_cond_decay_EYE-try,2021.2.3,168.12776993588744,
left,0.75,1.0,0,0,0,0,0,1,0,1,0,0,2,2,4,,,,,,,,,,,,,,,3s,361.22356392187066,362.2285615717992,362.2162059098482,None,363.21627674694173,364.721051836852,363.21627674694173,364.721051836852,364.71428246377036,None,364.71428246377036,None,space,0.3254670361056924,364.71428246377036,None,1.5,365.1695701559074,None,,,,,,,DEC005,001,2022_May_18_1538,2-25_cond_decay_EYE-try,2021.2.3,168.12776993588744,
right,1.0,0.75,0,0,0,0,0,1,0,1,0,0,3,3,0,,,,,,,,,,,,,,,3s,366.2227055609692,367.2221342588309,367.2160240118392,None,368.21038803784177,370.5310312139336,368.21038803784177,370.5310312139336,370.5310312139336,None,370.5310312139336,None,space,0.2687209511641413,370.5310312139336,None,2.3194,370.9372334119398,None,,,,,,,DEC005,001,2022_May_18_1538,2-25_cond_decay_EYE-try,2021.2.3,168.12776993588744,
left,0.75,1.0,0,0,0,0,0,1,0,1,0,0,4,4,9,,,,,,,,,,,,,,,3s,371.9924374828115,372.9913751168642,372.98635089583695,None,373.98555699689314,374.50800293986686,373.98555699689314,374.50800293986686,374.50200758781284,None,374.50200758781284,None,space,0.3937442770693451,374.50200758781284,None,0.5173,375.0298807369545,None,,,,,,,DEC005,001,2022_May_18_1538,2-25_cond_decay_EYE-try,2021.2.3,168.12776993588744,
left,0.75,1.0,0,0,0,0,0,1,0,1,0,0,5,5,6,,,,,,,,,,,,,,,3s,376.08255915599875,377.0823368728161,377.07621460291557,None,378.07622532499954,379.4477285449393,378.07622532499954,379.4477285449393,379.4417162318714,None,379.4417162318714,None,space,0.36604545800946653,379.4417162318714,None,1.3657,379.9369701067917,None,,,,,,,DEC005,001,2022_May_18_1538,2-25_cond_decay_EYE-try,2021.2.3,168.12776993588744,
right,0.75,1.0,1,0,0,0,0,1,0,1,0,0,6,6,8,,,,,,,,,,,,,,,3s,380.99967456399463,382.00428712181747,381.98579646088183,None,382.99217624077573,383.79361582384445,382.99217624077573,383.79361582384445,383.78661082382314,None,383.78661082382314,None,space,0.49314285698346794,383.78661082382314,None,0.7972,384.416180080967,None,,,,,,,DEC005,001,2022_May_18_1538,2-25_cond_decay_EYE-try,2021.2.3,168.12776993588744,
left,1.0,0.75,1,0,0,0,0,1,0,1,0,0,7,7,1,,,,,,,,,,,,,,,3s,385.4721674488392,386.47685143584386,386.46421885094605,None,387.4645240709651,389.60471066390164,387.4645240709651,389.60471066390164,389.59879621793516,None,389.59879621793516,None,None,,389.59879621793516,None,2.1353,390.7307795288507,None,,,,,,,DEC005,001,2022_May_18_1538,2-25_cond_decay_EYE-try,2021.2.3,168.12776993588744,
right,1.0,0.75,0,0,0,0,0,1,0,1,0,0,8,8,2,,,,,,,,,,,,,,,3s,391.7801034518052,392.7791076397989,392.7734282508027,None,393.7734013227746,396.0647185109556,393.7734013227746,396.0647185109556,396.0647185109556,None,396.0647185109556,None,space,0.28705061692744493,396.0647185109556,None,2.2911,396.4890320277773,None,,,,,,,DEC005,001,2022_May_18_1538,2-25_cond_decay_EYE-try,2021.2.3,168.12776993588744,
left,0.75,1.0,0,0,0,0,0,1,0,1,0,0,9,9,3,,,,,,,,,,,,,,,3s,397.54305099486373,398.5425915548112,398.53143311687745,None,399.531463336898,400.42794645787217,399.531463336898,400.42794645787217,400.42794645787217,None,400.42794645787217,None,space,0.3957907462026924,400.42794645787217,None,0.8921,400.96081429487094,None,,,,,,,DEC005,001,2022_May_18_1538,2-25_cond_decay_EYE-try,2021.2.3,168.12776993588744,
left,0.75,1.0,0,0,0,0,0,1,0,1,0,1,0,10,4,,,,,,,,,,,,,,,3s,402.01579819782637,403.015884345863,403.0099890867714,None,404.0095820578281,405.8637631589081,404.0095820578281,405.8637631589081,405.8637631589081,None,405.8637631589081,None,space,0.3359871639404446,405.8637631589081,None,1.8528,406.3364406749606,None,,,,,,,DEC005,001,2022_May_18_1538,2-25_cond_decay_EYE-try,2021.2.3,168.12776993588744,
left,0.75,1.0,0,0,0,0,0,1,0,1,0,1,1,11,3,,,,,,,,,,,,,,,3s,407.3917701288592,408.3913908288814,408.38546716887504,None,409.38513185689226,410.1848968549166,409.38513185689226,410.1848968549166,410.1848968549166,None,410.1848968549166,None,space,0.49486669106408954,410.1848968549166,None,0.7974,410.81069872993976,None,,,,,,,DEC005,001,2022_May_18_1538,2-25_cond_decay_EYE-try,2021.2.3,168.12776993588744,
left,0.75,1.0,0,0,0,0,0,1,0,1,0,1,2,12,6,,,,,,,,,,,,,,,3s,411.8585148798302,412.85769860679284,412.8516482899431,None,413.8523092889227,416.22720016282983,413.8523092889227,416.22720016282983,416.22720016282983,None,416.22720016282983,None,space,0.30054719210602343,416.22720016282983,None,2.3764,416.659336514771,None,,,,,,,DEC005,001,2022_May_18_1538,2-25_cond_decay_EYE-try,2021.2.3,168.12776993588744,
right,1.0,0.75,0,0,0,0,0,1,0,1,0,1,3,13,2,,,,,,,,,,,,,,,3s,417.7186010838486,418.7185709869955,418.71263879793696,None,419.71215419191867,420.41133008687757,419.71215419191867,420.41133008687757,420.41133008687757,None,420.41133008687757,None,space,0.2684141758363694,420.41133008687757,None,0.6953,420.8102598618716,None,,,,,,,DEC005,001,2022_May_18_1538,2-25_cond_decay_EYE-try,2021.2.3,168.12776993588744,
right,0.75,1.0,1,0,0,0,0,1,0,1,0,1,4,14,8,,,,,,,,,,,,,,,3s,421.86443709000014,422.86339019285515,422.8574231378734,None,423.85806505498476,424.6892236529384,423.85806505498476,424.6892236529384,424.683343246812,None,424.683343246812,None,space,0.5004222788847983,424.683343246812,None,0.8267,425.31203043996356,None,,,,,,,DEC005,001,2022_May_18_1538,2-25_cond_decay_EYE-try,2021.2.3,168.12776993588744,
right,1.0,0.75,0,0,0,0,0,1,0,1,0,1,5,15,5,,,,,,,,,,,,,,,3s,426.36736813979223,427.36661492683925,427.3610578358639,None,428.36101209698245,431.21677137794904,428.36101209698245,431.21677137794904,431.21089863195084,None,431.21089863195084,None,space,0.5008641548920423,431.21089863195084,None,2.8513,431.8462182797957,None,,,,,,,DEC005,001,2022_May_18_1538,2-25_cond_decay_EYE-try,2021.2.3,168.12776993588744,
left,1.0,0.75,1,0,0,0,0,1,0,1,0,1,6,16,1,,,,,,,,,,,,,,,3s,432.89583579078317,433.90004437882453,433.88819289091043,None,434.88836569781415,436.24633091082796,434.88836569781415,436.24633091082796,436.24044291186146,437.2392700938508,436.24044291186146,437.2392700938508,None,,436.24044291186146,437.2392700938508,1.3528,437.37272589979693,None,,,,,,,DEC005,001,2022_May_18_1538,2-25_cond_decay_EYE-try,2021.2.3,168.12776993588744,
right,1.0,0.75,0,0,0,0,0,1,0,1,0,1,7,17,0,,,,,,,,,,,,,,,3s,438.4280118988827,439.4337563258596,439.4208956749644,None,440.4212702238001,440.90740876691416,440.4212702238001,440.90740876691416,440.9016723497771,None,440.9016723497771,None,space,0.30609218613244593,440.9016723497771,None,0.4814,441.3424312369898,None,,,,,,,DEC005,001,2022_May_18_1538,2-25_cond_decay_EYE-try,2021.2.3,168.12776993588744,
left,0.75,1.0,0,0,0,0,0,1,0,1,0,1,8,18,9,,,,,,,,,,,,,,,3s,442.3905450988095,443.3911271567922,443.3850819009822,None,444.3848510098178,445.42143574589863,444.3848510098178,445.42143574589863,445.4154915257823,None,445.4154915257823,None,space,0.37625624192878604,445.4154915257823,None,1.0265,445.93048131885007,None,,,,,,,DEC005,001,2022_May_18_1538,2-25_cond_decay_EYE-try,2021.2.3,168.12776993588744,
right,1.0,0.75,0,0,0,0,0,1,0,1,0,1,9,19,7,,,,,,,,,,,,,,,3s,446.9852689038962,447.9853190248832,447.97317176591605,None,448.9724545488134,450.06939689279534,448.9724545488134,450.06939689279534,450.06939689279534,None,450.06939689279534,None,space,0.33837198186665773,450.06939689279534,None,1.0971,450.54301593778655,None,,,,,,,DEC005,001,2022_May_18_1538,2-25_cond_decay_EYE-try,2021.2.3,168.12776993588744,
,,,,0,0,0,0,1,0,1,0,,,,,,,,,,,,,,,,,,,,,,,,,,,,,,,,,,,,,,,,,,,,,DEC005,001,2022_May_18_1538,2-25_cond_decay_EYE-try,2021.2.3,168.12776993588744,
right,1.0,0.75,0,0,0,0,0,2,0,2,0,0,0,0,7,,,,,,,,,451.43375920993276,None,451.43375920993276,None,451.43375920993276,None,10s,454.93023756495677,455.93018368491903,455.91858032299206,None,456.9176747419406,465.1720406669192,456.9176747419406,465.1720406669192,465.1720406669192,None,465.1720406669192,None,space,0.3717217920348048,465.1720406669192,None,8.2531,465.68265662086196,None,,,,,,,DEC005,001,2022_May_18_1538,2-25_cond_decay_EYE-try,2021.2.3,168.12776993588744,
left,0.75,1.0,0,0,0,0,0,2,0,2,0,0,1,1,6,,,,,,,,,,,,,,,10s,466.74213936086744,467.7425459048245,467.7366037599277,None,468.7357125089038,477.9416396918241,468.7357125089038,477.9416396918241,477.9416396918241,None,477.9416396918241,None,space,0.3621255289763212,477.9416396918241,None,9.2068,478.4387578058522,None,,,,,,,DEC005,001,2022_May_18_1538,2-25_cond_decay_EYE-try,2021.2.3,168.12776993588744,
left,0.75,1.0,0,0,0,0,0,2,0,2,0,0,2,2,5,,,,,,,,,,,,,,,10s,479.4817315819673,480.48155663185753,480.46930306288414,None,481.47489921585657,482.3678467758,481.47489921585657,482.3678467758,482.36091466783546,None,482.36091466783546,None,space,0.5509133350569755,482.36091466783546,None,0.8882,483.0466886879876,None,,,,,,,DEC005,001,2022_May_18_1538,2-25_cond_decay_EYE-try,2021.2.3,168.12776993588744,
right,1.0,0.75,0,0,0,0,0,2,0,2,0,0,3,3,3,,,,,,,,,,,,,,,10s,484.1061353669502,485.10586852394044,485.0933172898367,None,486.09369836887345,486.54282013792545,486.09369836887345,486.54282013792545,486.5370563468896,None,486.5370563468896,None,space,0.6307115119416267,486.5370563468896,None,0.444,487.3054134019185,None,,,,,,,DEC005,001,2022_May_18_1538,2-25_cond_decay_EYE-try,2021.2.3,168.12776993588744,
right,1.0,0.75,0,0,0,0,0,2,0,2,0,0,4,4,0,,,,,,,,,,,,,,,10s,488.3556642329786,489.3602003729902,489.3474827359896,None,490.34782586991787,496.25220054993406,490.34782586991787,496.25220054993406,496.24634039378725,None,496.24634039378725,None,space,0.38542782003059983,496.24634039378725,None,5.8996,496.7655967338942,None,,,,,,,DEC005,001,2022_May_18_1538,2-25_cond_decay_EYE-try,2021.2.3,168.12776993588744,
right,1.0,0.75,0,0,0,0,0,2,0,2,0,0,5,5,1,,,,,,,,,,,,,,,10s,497.80827009980567,498.808605087921,498.80207751481794,None,499.8026214898564,504.96014507487416,499.8026214898564,504.96014507487416,504.96014507487416,None,504.96014507487416,None,space,0.3676277061458677,504.96014507487416,None,5.1563,505.4623913378455,None,,,,,,,DEC005,001,2022_May_18_1538,2-25_cond_decay_EYE-try,2021.2.3,168.12776993588744,
left,0.75,1.0,0,0,0,0,0,2,0,2,0,0,6,6,4,,,,,,,,,,,,,,,10s,506.5115456278436,507.5110468638595,507.50497567583807,None,508.50486222677864,513.6147067898419,508.50486222677864,513.6147067898419,513.6147067898419,None,513.6147067898419,None,space,0.31304832408204675,513.6147067898419,None,5.1058,514.0576197667979,None,,,,,,,DEC005,001,2022_May_18_1538,2-25_cond_decay_EYE-try,2021.2.3,168.12776993588744,
right,1.0,0.75,0,0,0,0,0,2,0,2,0,0,7,7,8,,,,,,,,,,,,,,,10s,515.1173561199103,516.117274840828,516.1113313608803,None,517.1109991788398,520.4877004299778,517.1109991788398,520.4877004299778,520.4816549487878,None,520.4816549487878,None,None,,520.4816549487878,None,3.3706,521.6082424388733,None,,,,,,,DEC005,001,2022_May_18_1538,2-25_cond_decay_EYE-try,2021.2.3,168.12776993588744,
left,1.0,0.75,1,0,0,0,0,2,0,2,0,0,8,8,9,,,,,,,,,,,,,,,10s,522.6582946169656,523.6623067439068,523.651001984952,None,524.6499677679967,532.8320413699839,524.6499677679967,532.8320413699839,532.8320413699839,None,532.8320413699839,None,space,0.3677349309436977,532.8320413699839,None,8.1813,533.335643786937,None,,,,,,,DEC005,001,2022_May_18_1538,2-25_cond_decay_EYE-try,2021.2.3,168.12776993588744,
right,0.75,1.0,1,0,0,0,0,2,0,2,0,0,9,9,2,,,,,,,,,,,,,,,10s,534.3894752559718,535.39028095291,535.383191752946,None,536.3840380287729,543.1166049798485,536.3840380287729,543.1166049798485,543.1166049798485,None,543.1166049798485,None,space,0.587172786006704,543.1166049798485,None,6.7299,543.8336076138075,None,,,,,,,DEC005,001,2022_May_18_1538,2-25_cond_decay_EYE-try,2021.2.3,168.12776993588744,
right,0.75,1.0,1,0,0,0,0,2,0,2,0,1,0,10,2,,,,,,,,,,,,,,,10s,544.8810877169017,545.88102118182,545.8750116638839,None,546.8746646419168,549.5473411818966,546.8746646419168,549.5473411818966,549.5473411818966,None,549.5473411818966,None,space,0.5644362298771739,549.5473411818966,None,2.6738,550.2500085069332,None,,,,,,,DEC005,001,2022_May_18_1538,2-25_cond_decay_EYE-try,2021.2.3,168.12776993588744,
right,1.0,0.75,0,0,0,0,0,2,0,2,0,1,1,11,1,,,,,,,,,,,,,,,10s,551.3050516529474,552.3049978669733,552.2989927039016,None,553.2981716329232,559.1228296170011,553.2981716329232,559.1228296170011,559.1228296170011,None,559.1228296170011,None,space,0.3569420750718564,559.1228296170011,None,5.8233,559.6092808248941,None,,,,,,,DEC005,001,2022_May_18_1538,2-25_cond_decay_EYE-try,2021.2.3,168.12776993588744,
left,0.75,1.0,0,0,0,0,0,2,0,2,0,1,2,12,4,,,,,,,,,,,,,,,10s,560.6617913299706,561.6624360028654,561.6563102588989,None,562.6557875829749,565.5897711038124,562.6557875829749,565.5897711038124,565.5897711038124,None,565.5897711038124,None,space,0.3299929171334952,565.5897711038124,None,2.9343,566.0515553888399,None,,,,,,,DEC005,001,2022_May_18_1538,2-25_cond_decay_EYE-try,2021.2.3,168.12776993588744,
left,1.0,0.75,1,0,0,0,0,2,0,2,0,1,3,13,9,,,,,,,,,,,,,,,10s,567.1041168039665,568.1047887518071,568.0988858568016,None,569.0981774299871,570.8922447129153,569.0981774299871,570.8922447129153,570.8922447129153,None,570.8922447129153,None,space,0.43553099199198186,570.8922447129153,None,1.7907,571.4571732778568,None,,,,,,,DEC005,001,2022_May_18_1538,2-25_cond_decay_EYE-try,2021.2.3,168.12776993588744,
right,1.0,0.75,0,0,0,0,0,2,0,2,0,1,4,14,3,,,,,,,,,,,,,,,10s,572.5114128259011,573.5166563768871,573.5039139429573,None,574.5044645918533,576.3953470839188,574.5044645918533,576.3953470839188,576.3953470839188,None,576.3953470839188,None,space,0.4204285799060017,576.3953470839188,None,1.8912,576.9477430859115,None,,,,,,,DEC005,001,2022_May_18_1538,2-25_cond_decay_EYE-try,2021.2.3,168.12776993588744,
right,1.0,0.75,0,0,0,0,0,2,0,2,0,1,5,15,0,,,,,,,,,,,,,,,10s,578.0014489640016,579.0013540559448,578.9952849699184,None,579.994958634954,582.4874656097963,579.994958634954,582.4874656097963,582.4815856909845,None,582.4815856909845,None,None,,582.4815856909845,None,2.4872,583.6138504818082,None,,,,,,,DEC005,001,2022_May_18_1538,2-25_cond_decay_EYE-try,2021.2.3,168.12776993588744,
left,0.75,1.0,0,0,0,0,0,2,0,2,0,1,6,16,7,,,,,,,,,,,,,,,10s,584.6677818729077,585.6682979047764,585.655511484947,None,586.6552914518397,587.2742151007988,586.6552914518397,587.2742151007988,587.2742151007988,None,587.2742151007988,None,space,0.40555378003045917,587.2742151007988,None,0.6177,587.8135785439517,None,,,,,,,DEC005,001,2022_May_18_1538,2-25_cond_decay_EYE-try,2021.2.3,168.12776993588744,
right,1.0,0.75,0,0,0,0,0,2,0,2,0,1,7,17,8,,,,,,,,,,,,,,,10s,588.868095781887,589.8678992199712,589.8561782219913,None,590.8616270069033,597.3906474087853,590.8616270069033,597.3906474087853,597.3839136029128,None,597.3839136029128,None,space,0.34386901115067303,597.3839136029128,None,6.5236,597.8567522908561,None,,,,,,,DEC005,001,2022_May_18_1538,2-25_cond_decay_EYE-try,2021.2.3,168.12776993588744,
left,0.75,1.0,0,0,0,0,0,2,0,2,0,1,8,18,5,,,,,,,,,,,,,,,10s,598.9165215089452,599.9163333629258,599.9102665628307,None,600.910070969956,607.5116462828591,600.910070969956,607.5116462828591,607.5048414559569,None,607.5048414559569,None,space,0.3269488208461553,607.5048414559569,None,6.5948,607.9649907548446,None,,,,,,,DEC005,001,2022_May_18_1538,2-25_cond_decay_EYE-try,2021.2.3,168.12776993588744,
left,0.75,1.0,0,0,0,0,0,2,0,2,0,1,9,19,6,,,,,,,,,,,,,,,10s,609.0186809478328,610.0188351068646,610.0129472089466,None,611.0125730219297,616.0916566939559,611.0125730219297,616.0916566939559,616.0916566939559,None,616.0916566939559,None,space,0.3161296481266618,616.0916566939559,None,5.075,616.5401272617746,None,,,,,,,DEC005,001,2022_May_18_1538,2-25_cond_decay_EYE-try,2021.2.3,168.12776993588744,
,,,,0,0,0,0,2,0,2,0,,,,,,,,,,,,,,,,,,,,,,,,,,,,,,,,,,,,,,,,,,,,,DEC005,001,2022_May_18_1538,2-25_cond_decay_EYE-try,2021.2.3,168.12776993588744,
left,0.75,1.0,0,0,0,0,0,3,0,3,0,0,0,0,0,,,,,,,,,617.4366923728958,None,617.4366923728958,None,617.4366923728958,None,1s,623.3175706018228,624.3219455177896,624.309739677934,None,625.3094434849918,626.0798108319286,625.3094434849918,626.0798108319286,626.0798108319286,None,626.0798108319286,None,space,0.46397440414875746,626.0798108319286,None,0.7672,626.6797993818764,None,,,,,,,DEC005,001,2022_May_18_1538,2-25_cond_decay_EYE-try,2021.2.3,168.12776993588744,
left,0.75,1.0,0,0,0,0,0,3,0,3,0,0,1,1,5,,,,,,,,,,,,,,,1s,627.7274781309534,628.7284084409475,628.7223911897745,None,629.7214186049532,630.6792715888005,629.7214186049532,630.6792715888005,630.6792715888005,None,630.6792715888005,None,space,0.3204909909982234,630.6792715888005,None,0.9559,631.1296025668271,None,,,,,,,DEC005,001,2022_May_18_1538,2-25_cond_decay_EYE-try,2021.2.3,168.12776993588744,
left,0.75,1.0,0,0,0,0,0,3,0,3,0,0,2,2,2,,,,,,,,,,,,,,,1s,632.1822113038506,633.1818848089315,633.1761561629828,None,634.1762829229701,634.3339136168361,634.1762829229701,634.3339136168361,634.3339136168361,None,634.3339136168361,None,space,0.37787432316690683,634.3339136168361,None,0.1561,634.8439666929189,None,,,,,,,DEC005,001,2022_May_18_1538,2-25_cond_decay_EYE-try,2021.2.3,168.12776993588744,
left,0.75,1.0,0,0,0,0,0,3,0,3,0,0,3,3,7,,,,,,,,,,,,,,,1s,635.8972944798879,636.8977910189424,636.8918594028801,None,637.8910939169582,638.2304951038677,637.8910939169582,638.2304951038677,638.2304951038677,None,638.2304951038677,None,space,0.38529457803815603,638.2304951038677,None,0.3395,638.7517016478814,None,,,,,,,DEC005,001,2022_May_18_1538,2-25_cond_decay_EYE-try,2021.2.3,168.12776993588744,
right,1.0,0.75,0,0,0,0,0,3,0,3,0,0,4,4,1,,,,,,,,,,,,,,,1s,639.8123376257718,640.812740953872,640.8002884858288,None,641.8007419959176,642.4181544848252,641.8007419959176,642.4181544848252,642.4181544848252,None,642.4181544848252,None,space,0.4056368391029537,642.4181544848252,None,0.6158,642.9532865129877,None,,,,,,,DEC005,001,2022_May_18_1538,2-25_cond_decay_EYE-try,2021.2.3,168.12776993588744,
right,1.0,0.75,0,0,0,0,0,3,0,3,0,0,5,5,4,,,,,,,,,,,,,,,1s,644.0006732339971,645.0003511928953,644.9943697277922,None,645.9939528659452,646.2854758379981,645.9939528659452,646.2854758379981,646.2854758379981,None,646.2854758379981,None,None,,646.2854758379981,None,0.2899,647.4122346509248,None,,,,,,,DEC005,001,2022_May_18_1538,2-25_cond_decay_EYE-try,2021.2.3,168.12776993588744,
right,1.0,0.75,0,0,0,0,0,3,0,3,0,0,6,6,6,,,,,,,,,,,,,,,1s,648.4615617489908,649.461163315922,649.4550723149441,None,650.4547942008357,650.6121159577742,650.4547942008357,650.6121159577742,650.6121159577742,None,650.6121159577742,None,space,0.3796543041244149,650.6121159577742,None,0.156,651.1279688659124,None,,,,,,,DEC005,001,2022_May_18_1538,2-25_cond_decay_EYE-try,2021.2.3,168.12776993588744,
left,1.0,0.75,1,0,0,0,0,3,0,3,0,0,7,7,3,,,,,,,,,,,,,,,1s,652.1775363048073,653.1821325798519,653.1703714358155,None,654.1698526658583,654.339505234966,654.1698526658583,654.339505234966,654.339505234966,None,654.339505234966,None,None,,654.339505234966,None,0.1685,655.4686413558666,None,,,,,,,DEC005,001,2022_May_18_1538,2-25_cond_decay_EYE-try,2021.2.3,168.12776993588744,
right,0.75,1.0,1,0,0,0,0,3,0,3,0,0,8,8,8,,,,,,,,,,,,,,,1s,656.5214115618728,657.5210988959298,657.5151105308905,None,658.5149211129174,658.9151594359428,658.5149211129174,658.9151594359428,658.9095416700002,None,658.9095416700002,None,space,0.7622384370770305,658.9095416700002,None,0.3919,659.8064872298855,None,,,,,,,DEC005,001,2022_May_18_1538,2-25_cond_decay_EYE-try,2021.2.3,168.12776993588744,
left,0.75,1.0,0,0,0,0,0,3,0,3,0,0,9,9,9,,,,,,,,,,,,,,,1s,660.8611938247923,661.8612419138663,661.8488543957938,None,662.8489544629119,663.2484784319531,662.8489544629119,663.2484784319531,663.2484784319531,None,663.2484784319531,None,space,0.35931084398180246,663.2484784319531,None,0.3949,663.7406102409586,None,,,,,,,DEC005,001,2022_May_18_1538,2-25_cond_decay_EYE-try,2021.2.3,168.12776993588744,
left,0.75,1.0,0,0,0,0,0,3,0,3,0,1,0,10,5,,,,,,,,,,,,,,,1s,664.7877649317961,665.7879198167939,665.7819307628088,None,666.782388730906,667.3585788309574,666.782388730906,667.3585788309574,667.3528568048496,None,667.3528568048496,None,space,0.28691809298470616,667.3528568048496,None,0.5711,667.7702699669171,None,,,,,,,DEC005,001,2022_May_18_1538,2-25_cond_decay_EYE-try,2021.2.3,168.12776993588744,
left,0.75,1.0,0,0,0,0,0,3,0,3,0,1,1,11,2,,,,,,,,,,,,,,,1s,668.8248377228156,669.8243930838071,669.8184112459421,None,670.8187793579418,671.3955112388358,670.8187793579418,671.3955112388358,671.3897030868102,None,671.3897030868102,None,space,0.33808656386099756,671.3897030868102,None,0.5705,671.8662113209721,None,,,,,,,DEC005,001,2022_May_18_1538,2-25_cond_decay_EYE-try,2021.2.3,168.12776993588744,
left,1.0,0.75,1,0,0,0,0,3,0,3,0,1,2,12,3,,,,,,,,,,,,,,,1s,672.920695375884,673.921244722791,673.9089384849649,None,674.9090008880012,675.4852606118657,674.9090008880012,675.4852606118657,675.4852606118657,None,675.4852606118657,None,space,0.5065160489175469,675.4852606118657,None,0.5753,676.1278809409123,None,,,,,,,DEC005,001,2022_May_18_1538,2-25_cond_decay_EYE-try,2021.2.3,168.12776993588744,
right,1.0,0.75,0,0,0,0,0,3,0,3,0,1,3,13,1,,,,,,,,,,,,,,,1s,677.1758558419533,678.1761661418714,678.1699209779035,None,679.1694055409171,679.328481917968,679.1694055409171,679.328481917968,679.3226874298416,None,679.3226874298416,None,space,0.421115888049826,679.3226874298416,None,0.1553,679.8733157077804,None,,,,,,,DEC005,001,2022_May_18_1538,2-25_cond_decay_EYE-try,2021.2.3,168.12776993588744,
right,0.75,1.0,1,0,0,0,0,3,0,3,0,1,4,14,8,,,,,,,,,,,,,,,1s,680.9289450428914,681.9336837569717,681.9207842159085,None,682.9207449709065,683.2186949518509,682.9207449709065,683.2186949518509,683.2186949518509,None,683.2186949518509,None,None,,683.2186949518509,None,0.2973,684.3453562029172,None,,,,,,,DEC005,001,2022_May_18_1538,2-25_cond_decay_EYE-try,2021.2.3,168.12776993588744,
left,0.75,1.0,0,0,0,0,0,3,0,3,0,1,5,15,7,,,,,,,,,,,,,,,1s,685.3939562398009,686.3935891818255,686.3875132019166,None,687.3873317479156,687.709509291919,687.3873317479156,687.709509291919,687.709509291919,None,687.709509291919,None,space,0.40227563097141683,687.709509291919,None,0.3197,688.2545582328457,None,,,,,,,DEC005,001,2022_May_18_1538,2-25_cond_decay_EYE-try,2021.2.3,168.12776993588744,
right,1.0,0.75,0,0,0,0,0,3,0,3,0,1,6,16,4,,,,,,,,,,,,,,,1s,689.3091720449738,690.3085961358156,690.2971455568913,None,691.2968823937699,692.1519062719308,691.2968823937699,692.1519062719308,692.1519062719308,None,692.1519062719308,None,space,0.6318899958860129,692.1519062719308,None,0.8508,692.9210447228979,None,,,,,,,DEC005,001,2022_May_18_1538,2-25_cond_decay_EYE-try,2021.2.3,168.12776993588744,
left,0.75,1.0,0,0,0,0,0,3,0,3,0,1,7,17,9,,,,,,,,,,,,,,,1s,693.9815642409958,694.981735171983,694.9690384238493,None,695.9699791688472,696.5996932398994,695.9699791688472,696.5996932398994,696.5996932398994,None,696.5996932398994,None,space,0.3840809620451182,696.5996932398994,None,0.6305,697.1153012579307,None,,,,,,,DEC005,001,2022_May_18_1538,2-25_cond_decay_EYE-try,2021.2.3,168.12776993588744,
right,1.0,0.75,0,0,0,0,0,3,0,3,0,1,8,18,0,,,,,,,,,,,,,,,1s,698.1759954039007,699.1749132268596,699.1629097259138,None,700.1637808459345,700.3268343158998,700.1637808459345,700.3268343158998,700.3268343158998,None,700.3268343158998,None,space,0.336956491926685,700.3268343158998,None,0.1641,700.7954443269409,None,,,,,,,DEC005,001,2022_May_18_1538,2-25_cond_decay_EYE-try,2021.2.3,168.12776993588744,
right,1.0,0.75,0,0,0,0,0,3,0,3,0,1,9,19,6,,,,,,,,,,,,,,,1s,701.8480304798577,702.8483222888317,702.8424085339066,None,703.8419819038827,704.4478742368519,703.8419819038827,704.4478742368519,704.4478742368519,None,704.4478742368519,None,space,0.3678941410034895,704.4478742368519,None,0.6063,704.9467163579538,None,,,,,,,DEC005,001,2022_May_18_1538,2-25_cond_decay_EYE-try,2021.2.3,168.12776993588744,
,,,,0,0,0,0,3,0,3,0,,,,,,,,,,,,,,,,,,,,,,,,,,,,,,,,,,,,,,,,,,,,,DEC005,001,2022_May_18_1538,2-25_cond_decay_EYE-try,2021.2.3,168.12776993588744,
,,,,0,0,0,0,,,,,,,,,,,,,,,,,,,,,,,,,,,,,,,,,,,,,,,,,,,705.8425210157875,None,705.8425210157875,None,705.8425210157875,None,DEC005,001,2022_May_18_1538,2-25_cond_decay_EYE-try,2021.2.3,168.12776993588744,
left,0.75,1.0,0,1,0,1,0,0,0,0,0,0,0,0,0,,,,,,,,,710.8478016857989,None,710.8478016857989,None,710.8478016857989,None,10s,713.7575999528635,714.75738506997,714.7515269347932,None,715.751003524987,723.2658393078018,715.751003524987,723.2658393078018,723.2658393078018,None,723.2658393078018,None,space,0.3579451530240476,723.2658393078018,None,7.514,723.7583423769102,None,,,,,,,DEC005,001,2022_May_18_1538,2-25_cond_decay_EYE-try,2021.2.3,168.12776993588744,
right,1.0,0.75,0,1,0,1,0,0,0,0,0,0,1,1,8,,,,,,,,,,,,,,,10s,724.8177294998895,725.8173004309647,725.8055967348628,None,726.8053333689459,727.8602710699197,726.8053333689459,727.8602710699197,727.8602710699197,None,727.8602710699197,None,None,,727.8602710699197,None,1.0539,728.9867450569291,None,,,,,,,DEC005,001,2022_May_18_1538,2-25_cond_decay_EYE-try,2021.2.3,168.12776993588744,
right,1.0,0.75,0,1,0,1,0,0,0,0,0,0,2,2,9,,,,,,,,,,,,,,,10s,730.0353834838606,731.0353098048363,731.0294203718659,None,732.0299964768346,735.0723664599936,732.0299964768346,735.0723664599936,735.0723664599936,None,735.0723664599936,None,None,,735.0723664599936,None,3.0388,736.1936014678795,None,,,,,,,DEC005,001,2022_May_18_1538,2-25_cond_decay_EYE-try,2021.2.3,168.12776993588744,
left,0.75,1.0,0,1,0,1,0,0,0,0,0,0,3,3,3,,,,,,,,,,,,,,,10s,737.2532504599076,738.2540362128057,738.2471524679568,None,739.2478330708109,739.8114335308783,739.2478330708109,739.8114335308783,739.8114335308783,None,739.8114335308783,None,space,0.8043666409794241,739.8114335308783,None,0.5597,740.7524093799293,None,,,,,,,DEC005,001,2022_May_18_1538,2-25_cond_decay_EYE-try,2021.2.3,168.12776993588744,
left,1.0,0.75,1,1,0,1,0,0,0,0,0,0,4,4,7,,,,,,,,,,,,,,,10s,741.7995000279043,742.7994758929126,742.792711306829,None,743.7872821129858,750.8591136189643,743.7872821129858,750.8591136189643,750.8591136189643,None,750.8591136189643,None,space,0.4046899019740522,750.8591136189643,None,7.0686,751.3946871599182,None,,,,,,,DEC005,001,2022_May_18_1538,2-25_cond_decay_EYE-try,2021.2.3,168.12776993588744,
left,0.75,1.0,0,1,0,1,0,0,0,0,0,0,5,5,1,,,,,,,,,,,,,,,10s,752.4477835667785,753.4475945679005,753.441843150882,None,754.440873118816,761.1633507597726,754.440873118816,761.1633507597726,761.15745628695,None,761.15745628695,None,space,0.322343226056546,761.15745628695,None,6.7169,761.6174389049411,None,,,,,,,DEC005,001,2022_May_18_1538,2-25_cond_decay_EYE-try,2021.2.3,168.12776993588744,
right,1.0,0.75,0,1,0,1,0,0,0,0,0,0,6,6,6,,,,,,,,,,,,,,,10s,762.6772479258943,763.6770646469668,763.6659520259127,None,764.6650684028864,767.6836708288174,764.6650684028864,767.6836708288174,767.6836708288174,None,767.6836708288174,None,None,,767.6836708288174,None,3.0179,768.8113987168763,None,,,,,,,DEC005,001,2022_May_18_1538,2-25_cond_decay_EYE-try,2021.2.3,168.12776993588744,
right,0.75,1.0,1,1,0,1,0,0,0,0,0,0,7,7,5,,,,,,,,,,,,,,,10s,769.8538234478328,770.8531253288966,770.8472168599255,None,771.8469482669607,773.3439837039914,771.8469482669607,773.3439837039914,773.3439837039914,None,773.3439837039914,None,space,0.5038118560332805,773.3439837039914,None,1.4949,773.9863508248236,None,,,,,,,DEC005,001,2022_May_18_1538,2-25_cond_decay_EYE-try,2021.2.3,168.12776993588744,
left,0.75,1.0,0,1,0,1,0,0,0,0,0,0,8,8,4,,,,,,,,,,,,,,,10s,775.0356564209796,776.0352560728788,776.0293112958316,None,777.029463637853,782.8051513549872,777.029463637853,782.8051513549872,782.7994145648554,None,782.7994145648554,None,space,0.9523884819354862,782.7994145648554,None,5.7704,783.8890440987889,None,,,,,,,DEC005,001,2022_May_18_1538,2-25_cond_decay_EYE-try,2021.2.3,168.12776993588744,
right,1.0,0.75,0,1,0,1,0,0,0,0,0,0,9,9,2,,,,,,,,,,,,,,,10s,784.9446361339651,785.9434687409084,785.9316861229017,None,786.9313584289048,791.0164212197997,786.9313584289048,791.0164212197997,791.0221470859833,None,791.0221470859833,None,space,0.37766214995644987,791.0221470859833,None,4.0852,791.5332689587958,None,,,,,,,DEC005,001,2022_May_18_1538,2-25_cond_decay_EYE-try,2021.2.3,168.12776993588744,
right,1.0,0.75,0,1,0,1,0,0,0,0,0,1,0,10,8,,,,,,,,,,,,,,,10s,792.5867107277736,793.5867522589397,793.5798041438684,None,794.5798939899541,803.1024993658066,794.5798939899541,803.1024993658066,803.0968589398544,None,803.0968589398544,None,None,,803.0968589398544,None,8.5196,804.2288089108188,None,,,,,,,DEC005,001,2022_May_18_1538,2-25_cond_decay_EYE-try,2021.2.3,168.12776993588744,
left,0.75,1.0,0,1,0,1,0,0,0,0,0,1,1,11,3,,,,,,,,,,,,,,,10s,805.2789444758091,806.2832449299749,806.270738493884,None,807.2708340748213,811.5081698789727,807.2708340748213,811.5081698789727,811.5022953089792,None,811.5022953089792,None,space,0.5535071310587227,811.5022953089792,None,4.2333,812.1930186389945,None,,,,,,,DEC005,001,2022_May_18_1538,2-25_cond_decay_EYE-try,2021.2.3,168.12776993588744,
right,0.75,1.0,1,1,0,1,0,0,0,0,0,1,2,12,5,,,,,,,,,,,,,,,10s,813.2408935858402,814.2411032728851,814.2340756969061,None,815.2347309798934,815.4101014127955,815.2347309798934,815.4101014127955,815.4101014127955,None,815.4101014127955,None,space,0.45370547100901604,815.4101014127955,None,0.1735,815.9929151129909,None,,,,,,,DEC005,001,2022_May_18_1538,2-25_cond_decay_EYE-try,2021.2.3,168.12776993588744,
right,1.0,0.75,0,1,0,1,0,0,0,0,0,1,3,13,9,,,,,,,,,,,,,,,10s,817.0524192668963,818.0531729538925,818.0403285748325,None,819.0409450549632,821.3614856728818,819.0409450549632,821.3614856728818,821.3614856728818,None,821.3614856728818,None,None,,821.3614856728818,None,2.3189,822.4891567658633,None,,,,,,,DEC005,001,2022_May_18_1538,2-25_cond_decay_EYE-try,2021.2.3,168.12776993588744,
left,0.75,1.0,0,1,0,1,0,0,0,0,0,1,4,14,0,,,,,,,,,,,,,,,10s,823.5434920808766,824.5438916848507,824.5308419179637,None,825.5316567369737,834.0828912449069,825.5316567369737,834.0828912449069,834.0828912449069,None,834.0828912449069,None,None,,834.0828912449069,None,8.5498,835.2044529279228,None,,,,,,,DEC005,001,2022_May_18_1538,2-25_cond_decay_EYE-try,2021.2.3,168.12776993588744,
left,1.0,0.75,1,1,0,1,0,0,0,0,0,1,5,15,7,,,,,,,,,,,,,,,10s,836.2583578808699,837.258390607778,837.2519793738611,None,838.252748685889,838.8038695678115,838.252748685889,838.8038695678115,838.8038695678115,None,838.8038695678115,None,space,0.4919391500297934,838.8038695678115,None,0.551,839.43401850597,None,,,,,,,DEC005,001,2022_May_18_1538,2-25_cond_decay_EYE-try,2021.2.3,168.12776993588744,
left,0.75,1.0,0,1,0,1,0,0,0,0,0,1,6,16,4,,,,,,,,,,,,,,,10s,840.4823403588962,841.4828334718477,841.476752525894,None,842.477038043784,850.7974864428397,842.477038043784,850.7974864428397,850.7974864428397,None,850.7974864428397,None,space,0.4023214590270072,850.7974864428397,None,8.3212,851.3327140598558,None,,,,,,,DEC005,001,2022_May_18_1538,2-25_cond_decay_EYE-try,2021.2.3,168.12776993588744,
right,1.0,0.75,0,1,0,1,0,0,0,0,0,1,7,17,2,,,,,,,,,,,,,,,10s,852.3855013838038,853.3854673318565,853.3738016218413,None,854.373428449966,862.694556487957,854.373428449966,862.694556487957,862.694556487957,None,862.694556487957,None,None,,862.694556487957,None,8.321,863.8218096429482,None,,,,,,,DEC005,001,2022_May_18_1538,2-25_cond_decay_EYE-try,2021.2.3,168.12776993588744,
right,1.0,0.75,0,1,0,1,0,0,0,0,0,1,8,18,6,,,,,,,,,,,,,,,10s,864.8697489898186,865.870679693995,865.8660001789685,None,866.8582204179838,868.9189721408766,866.8582204179838,868.9189721408766,868.9189721408766,869.9192271498032,868.9189721408766,869.9192271498032,None,,868.9189721408766,869.9192271498032,2.0605,870.0519833359867,None,,,,,,,DEC005,001,2022_May_18_1538,2-25_cond_decay_EYE-try,2021.2.3,168.12776993588744,
left,0.75,1.0,0,1,0,1,0,0,0,0,0,1,9,19,1,,,,,,,,,,,,,,,10s,871.1139989597723,872.1181408260018,872.1060217779595,None,873.1060943519697,881.3483863428701,873.1060943519697,881.3483863428701,881.3424694449641,None,881.3424694449641,None,None,,881.3424694449641,None,8.2339,882.4642345439643,None,,,,,,,DEC005,001,2022_May_18_1538,2-25_cond_decay_EYE-try,2021.2.3,168.12776993588744,
,,,,1,0,1,0,0,0,0,0,,,,,,,,,,,,,,,,,,,,,,,,,,,,,,,,,,,,,,,,,,,,,DEC005,001,2022_May_18_1538,2-25_cond_decay_EYE-try,2021.2.3,168.12776993588744,
right,1.0,0.75,0,1,0,1,0,1,0,1,0,0,0,0,4,,,,,,,,,883.356401395984,None,883.356401395984,None,883.356401395984,None,5s,893.9967876537703,894.9976445739157,894.9856218697969,None,895.985522959847,897.5131508118939,895.985522959847,897.5131508118939,897.5071105398238,898.5064459547866,897.5071105398238,898.5064459547866,None,,897.5071105398238,898.5064459547866,1.5221,898.6343048028648,None,,,,,,,DEC005,001,2022_May_18_1538,2-25_cond_decay_EYE-try,2021.2.3,168.12776993588744,
right,1.0,0.75,0,1,0,1,0,1,0,1,0,0,1,1,2,,,,,,,,,,,,,,,5s,899.6837535328232,900.6878701508977,900.6760420259088,None,901.6760794389993,906.2888459269889,901.6760794389993,906.2888459269889,906.2827857348602,None,906.2827857348602,None,space,0.3250374000053853,906.2827857348602,None,4.6085,906.7442429678049,None,,,,,,,DEC005,001,2022_May_18_1538,2-25_cond_decay_EYE-try,2021.2.3,168.12776993588744,
right,1.0,0.75,0,1,0,1,0,1,0,1,0,0,2,2,8,,,,,,,,,,,,,,,5s,907.7911661968101,908.7907017627731,908.7790737929754,None,909.778335631825,914.7482876668219,909.778335631825,914.7482876668219,914.7482876668219,None,914.7482876668219,None,space,0.3075437629595399,914.7482876668219,None,4.9662,915.1851984767709,None,,,,,,,DEC005,001,2022_May_18_1538,2-25_cond_decay_EYE-try,2021.2.3,168.12776993588744,
right,1.0,0.75,0,1,0,1,0,1,0,1,0,0,3,3,0,,,,,,,,,,,,,,,5s,916.2336445217952,917.2335960529745,917.2275100678671,None,918.2274148478173,922.3723755369429,918.2274148478173,922.3723755369429,922.3723755369429,None,922.3723755369429,None,space,0.3874547188170254,922.3723755369429,None,4.145,922.8889848608524,None,,,,,,,DEC005,001,2022_May_18_1538,2-25_cond_decay_EYE-try,2021.2.3,168.12776993588744,
left,0.75,1.0,0,1,0,1,0,1,0,1,0,0,4,4,5,,,,,,,,,,,,,,,5s,923.9478460229002,924.9484151909128,924.9421601248905,None,925.9426835859194,927.2218215907924,925.9426835859194,927.2218215907924,927.2162019058596,None,927.2162019058596,None,space,0.43962665111757815,927.2162019058596,None,1.274,927.7862814769614,None,,,,,,,DEC005,001,2022_May_18_1538,2-25_cond_decay_EYE-try,2021.2.3,168.12776993588744,
right,0.75,1.0,1,1,0,1,0,1,0,1,0,0,5,5,9,,,,,,,,,,,,,,,5s,928.8454923317768,929.8448089708108,929.8387183039449,None,930.8387686018832,932.8021562458016,930.8387686018832,932.8021562458016,932.8021562458016,None,932.8021562458016,None,space,0.3896635649725795,932.8021562458016,None,1.9601,933.3300337668043,None,,,,,,,DEC005,001,2022_May_18_1538,2-25_cond_decay_EYE-try,2021.2.3,168.12776993588744,
right,1.0,0.75,0,1,0,1,0,1,0,1,0,0,6,6,1,,,,,,,,,,,,,,,5s,934.384801806882,935.3840802849736,935.3782277898863,None,936.3779544739518,937.9914373948704,936.3779544739518,937.9914373948704,937.9856954768766,None,937.9856954768766,None,space,0.3741357191465795,937.9856954768766,None,1.6074,938.4877062658779,None,,,,,,,DEC005,001,2022_May_18_1538,2-25_cond_decay_EYE-try,2021.2.3,168.12776993588744,
left,1.0,0.75,1,1,0,1,0,1,0,1,0,0,7,7,3,,,,,,,,,,,,,,,5s,939.5477200399619,940.5483928248286,940.5423030618113,None,941.5422405169811,945.1315112919547,941.5422405169811,945.1315112919547,945.124627741985,None,945.124627741985,None,None,,945.124627741985,None,3.5824,946.2566879508086,None,,,,,,,DEC005,001,2022_May_18_1538,2-25_cond_decay_EYE-try,2021.2.3,168.12776993588744,
left,0.75,1.0,0,1,0,1,0,1,0,1,0,0,8,8,6,,,,,,,,,,,,,,,5s,947.3065856148023,948.3119678138755,948.2991833908018,None,949.2996964917984,949.7113429149613,949.2996964917984,949.7113429149613,949.7113429149613,None,949.7113429149613,None,space,0.42447679094038904,949.7113429149613,None,0.4113,950.2750703389756,None,,,,,,,DEC005,001,2022_May_18_1538,2-25_cond_decay_EYE-try,2021.2.3,168.12776993588744,
left,0.75,1.0,0,1,0,1,0,1,0,1,0,0,9,9,7,,,,,,,,,,,,,,,5s,951.3179773557931,952.3180789609905,952.3120078479405,None,953.3112141469028,956.3793926627841,953.3112141469028,956.3793926627841,956.3734985869378,None,956.3734985869378,None,space,0.3383165500126779,956.3734985869378,None,3.0651,956.8453420859296,None,,,,,,,DEC005,001,2022_May_18_1538,2-25_cond_decay_EYE-try,2021.2.3,168.12776993588744,
left,1.0,0.75,1,1,0,1,0,1,0,1,0,1,0,10,3,,,,,,,,,,,,,,,5s,957.8989015978295,958.8989154777955,958.8928603099193,None,959.8936500858981,964.5351324188523,959.8936500858981,964.5351324188523,964.5351324188523,None,964.5351324188523,None,space,0.5606906898319721,964.5351324188523,None,4.6386,965.2260503019206,None,,,,,,,DEC005,001,2022_May_18_1538,2-25_cond_decay_EYE-try,2021.2.3,168.12776993588744,
right,1.0,0.75,0,1,0,1,0,1,0,1,0,1,1,11,0,,,,,,,,,,,,,,,5s,966.287395512918,967.2868642718531,967.275239039911,None,968.2754762619734,970.2459565477911,968.2754762619734,970.2459565477911,970.2400287659839,None,970.2400287659839,None,space,0.4158020559698343,970.2400287659839,None,1.9648,970.7848316140007,None,,,,,,,DEC005,001,2022_May_18_1538,2-25_cond_decay_EYE-try,2021.2.3,168.12776993588744,
left,0.75,1.0,0,1,0,1,0,1,0,1,0,1,2,12,6,,,,,,,,,,,,,,,5s,971.8382412088104,972.8388030498754,972.826381029794,None,973.8266225259285,976.505087072961,973.8266225259285,976.505087072961,976.505087072961,None,976.505087072961,None,space,0.39874770515598357,976.505087072961,None,2.6792,977.032614909811,None,,,,,,,DEC005,001,2022_May_18_1538,2-25_cond_decay_EYE-try,2021.2.3,168.12776993588744,
right,1.0,0.75,0,1,0,1,0,1,0,1,0,1,3,13,1,,,,,,,,,,,,,,,5s,978.093370412942,979.0931598269381,979.0825826269574,None,980.0864759809338,981.0265149499755,980.0864759809338,981.0265149499755,981.0265149499755,None,981.0265149499755,None,space,0.4132984089665115,981.0265149499755,None,0.9401,981.5722624817863,None,,,,,,,DEC005,001,2022_May_18_1538,2-25_cond_decay_EYE-try,2021.2.3,168.12776993588744,
left,0.75,1.0,0,1,0,1,0,1,0,1,0,1,4,14,5,,,,,,,,,,,,,,,5s,982.6281544938684,983.6320484778844,983.6196860778145,None,984.6200186498463,988.0270069458056,984.6200186498463,988.0270069458056,988.0212392518297,None,988.0212392518297,None,space,0.37059096689336,988.0212392518297,None,3.4033,988.5233170548454,None,,,,,,,DEC005,001,2022_May_18_1538,2-25_cond_decay_EYE-try,2021.2.3,168.12776993588744,
right,1.0,0.75,0,1,0,1,0,1,0,1,0,1,5,15,2,,,,,,,,,,,,,,,5s,989.5779623128474,990.5776973448228,990.5660174239893,None,991.5657215779647,991.7469078358263,991.5657215779647,991.7469078358263,991.7469078358263,None,991.7469078358263,None,space,0.4449108748231083,991.7469078358263,None,0.1782,992.3233112460002,None,,,,,,,DEC005,001,2022_May_18_1538,2-25_cond_decay_EYE-try,2021.2.3,168.12776993588744,
left,0.75,1.0,0,1,0,1,0,1,0,1,0,1,6,16,4,,,,,,,,,,,,,,,5s,993.377337670885,994.3773412238806,994.3713087029755,None,995.3719527469948,997.2623767338227,995.3719527469948,997.2623767338227,997.2623767338227,None,997.2623767338227,None,space,0.3854384021833539,997.2623767338227,None,1.8915,997.7791869759094,None,,,,,,,DEC005,001,2022_May_18_1538,2-25_cond_decay_EYE-try,2021.2.3,168.12776993588744,
left,0.75,1.0,0,1,0,1,0,1,0,1,0,1,7,17,7,,,,,,,,,,,,,,,5s,998.8265025299042,999.8264343917836,999.8203389518894,None,1000.8202845908236,1005.0861374179367,1000.8202845908236,1005.0861374179367,1005.0861374179367,None,1005.0861374179367,None,space,0.3056973977945745,1005.0861374179367,None,4.2634,1005.5292120329104,None,,,,,,,DEC005,001,2022_May_18_1538,2-25_cond_decay_EYE-try,2021.2.3,168.12776993588744,
right,0.75,1.0,1,1,0,1,0,1,0,1,0,1,8,18,9,,,,,,,,,,,,,,,5s,1006.5837473538704,1007.5834550119471,1007.5773987609427,None,1008.5773006039672,1011.5409482449759,1008.5773006039672,1011.5409482449759,1011.5409482449759,None,1011.5409482449759,None,space,0.4908754259813577,1011.5409482449759,None,2.9639,1012.1655942858197,None,,,,,,,DEC005,001,2022_May_18_1538,2-25_cond_decay_EYE-try,2021.2.3,168.12776993588744,
right,1.0,0.75,0,1,0,1,0,1,0,1,0,1,9,19,8,,,,,,,,,,,,,,,5s,1013.220160060795,1014.21961426083,1014.2136677019298,None,1015.2141178259626,1017.5596398299094,1015.2141178259626,1017.5596398299094,1017.5596398299094,None,1017.5596398299094,None,space,0.45620424300432205,1017.5596398299094,None,2.3456,1018.1465912619606,None,,,,,,,DEC005,001,2022_May_18_1538,2-25_cond_decay_EYE-try,2021.2.3,168.12776993588744,
,,,,1,0,1,0,1,0,1,0,,,,,,,,,,,,,,,,,,,,,,,,,,,,,,,,,,,,,,,,,,,,,DEC005,001,2022_May_18_1538,2-25_cond_decay_EYE-try,2021.2.3,168.12776993588744,
right,1.0,0.75,0,1,0,1,0,2,0,2,0,0,0,0,4,,,,,,,,,1019.0445604398847,None,1019.0445604398847,None,1019.0445604398847,None,1s,1021.9473020238802,1022.9465089859441,1022.9403963908553,None,1023.9406627279241,1024.3897301258985,1023.9406627279241,1024.3897301258985,1024.384160099784,None,1024.384160099784,None,space,0.407670171931386,1024.384160099784,None,0.4451,1024.929150627926,None,,,,,,,DEC005,001,2022_May_18_1538,2-25_cond_decay_EYE-try,2021.2.3,168.12776993588744,
left,0.75,1.0,0,1,0,1,0,2,0,2,0,0,1,1,7,,,,,,,,,,,,,,,1s,1025.989115267992,1026.9887877039146,1026.9828830929473,None,1027.9834222088102,1028.9538168828003,1027.9834222088102,1028.9538168828003,1028.9478890839964,None,1028.9478890839964,None,space,0.40394272306002676,1028.9478890839964,None,0.9667,1029.4865808349568,None,,,,,,,DEC005,001,2022_May_18_1538,2-25_cond_decay_EYE-try,2021.2.3,168.12776993588744,
right,0.75,1.0,1,1,0,1,0,2,0,2,0,0,2,2,0,,,,,,,,,,,,,,,1s,1030.5344531589653,1031.534528635908,1031.5228691787925,None,1032.5230950789992,1033.091715258779,1032.5230950789992,1033.091715258779,1033.091715258779,None,1033.091715258779,None,space,0.44410818186588585,1033.091715258779,None,0.5687,1033.668688080972,None,,,,,,,DEC005,001,2022_May_18_1538,2-25_cond_decay_EYE-try,2021.2.3,168.12776993588744,
left,0.75,1.0,0,1,0,1,0,2,0,2,0,0,3,3,3,,,,,,,,,,,,,,,1s,1034.7282499198336,1035.7281662598252,1035.7220059868414,None,1036.7229275288992,1037.4753349239472,1036.7229275288992,1037.4753349239472,1037.4693463158328,None,1037.4693463158328,None,space,0.37048544688150287,1037.4693463158328,None,0.7461,1037.9714136789553,None,,,,,,,DEC005,001,2022_May_18_1538,2-25_cond_decay_EYE-try,2021.2.3,168.12776993588744,
right,1.0,0.75,0,1,0,1,0,2,0,2,0,0,4,4,1,,,,,,,,,,,,,,,1s,1039.0319635989144,1040.0321279759519,1040.026125174947,None,1041.0259152539074,1041.536037974991,1041.0259152539074,1041.536037974991,1041.5301380399615,None,1041.5301380399615,None,space,0.44570352998562157,1041.5301380399615,None,0.5076,1042.1101305759512,None,,,,,,,DEC005,001,2022_May_18_1538,2-25_cond_decay_EYE-try,2021.2.3,168.12776993588744,
left,0.75,1.0,0,1,0,1,0,2,0,2,0,0,5,5,9,,,,,,,,,,,,,,,1s,1043.1592361398507,1044.1582460519858,1044.1471952409483,None,1045.1466204398312,1045.5885991139803,1045.1466204398312,1045.5885991139803,1045.5885991139803,None,1045.5885991139803,None,space,0.32323513296432793,1045.5885991139803,None,0.4395,1046.0435823809821,None,,,,,,,DEC005,001,2022_May_18_1538,2-25_cond_decay_EYE-try,2021.2.3,168.12776993588744,
right,1.0,0.75,0,1,0,1,0,2,0,2,0,0,6,6,8,,,,,,,,,,,,,,,1s,1047.104207187891,1048.1037561858539,1048.0916433669627,None,1049.0917765977792,1049.5284002779517,1049.0917765977792,1049.5284002779517,1049.5284002779517,None,1049.5284002779517,None,space,0.34343259292654693,1049.5284002779517,None,0.4373,1050.0078494758345,None,,,,,,,DEC005,001,2022_May_18_1538,2-25_cond_decay_EYE-try,2021.2.3,168.12776993588744,
left,0.75,1.0,0,1,0,1,0,2,0,2,0,0,7,7,6,,,,,,,,,,,,,,,1s,1051.056105729891,1052.0557713259477,1052.04912021989,None,1053.049481421942,1053.2857051538303,1053.049481421942,1053.2857051538303,1053.2857051538303,None,1053.2857051538303,None,space,0.3141425650101155,1053.2857051538303,None,0.2375,1053.7299383878708,None,,,,,,,DEC005,001,2022_May_18_1538,2-25_cond_decay_EYE-try,2021.2.3,168.12776993588744,
right,1.0,0.75,0,1,0,1,0,2,0,2,0,0,8,8,5,,,,,,,,,,,,,,,1s,1054.7890910208225,1055.7895125779323,1055.782518783817,None,1056.7825844348408,1057.237282602815,1056.7825844348408,1057.237282602815,1057.237282602815,None,1057.237282602815,None,space,0.3225532709620893,1057.237282602815,None,0.4538,1057.6977913358714,None,,,,,,,DEC005,001,2022_May_18_1538,2-25_cond_decay_EYE-try,2021.2.3,168.12776993588744,
left,1.0,0.75,1,1,0,1,0,2,0,2,0,0,9,9,2,,,,,,,,,,,,,,,1s,1058.7581024109386,1059.758036638843,1059.7460878859274,None,1060.7519959849305,1061.3418152979575,1060.7519959849305,1061.3418152979575,1061.3359260868747,None,1061.3359260868747,None,space,0.44791221898049116,1061.3359260868747,None,0.5849,1061.9156294148415,None,,,,,,,DEC005,001,2022_May_18_1538,2-25_cond_decay_EYE-try,2021.2.3,168.12776993588744,
right,1.0,0.75,0,1,0,1,0,2,0,2,0,1,0,10,4,,,,,,,,,,,,,,,1s,1062.9703561149072,1063.9707949399017,1063.9646445368417,None,1064.9646932098549,1065.2611438038293,1064.9646932098549,1065.2611438038293,1065.2611438038293,None,1065.2611438038293,None,space,0.698678518878296,1065.2611438038293,None,0.2977,1066.0916846808977,None,,,,,,,DEC005,001,2022_May_18_1538,2-25_cond_decay_EYE-try,2021.2.3,168.12776993588744,
left,0.75,1.0,0,1,0,1,0,2,0,2,0,1,1,11,6,,,,,,,,,,,,,,,1s,1067.1479325238615,1068.1518977049273,1068.1402034168132,None,1069.1401621499099,1069.9645975288004,1069.1401621499099,1069.9645975288004,1069.9645975288004,None,1069.9645975288004,None,space,0.3552370169200003,1069.9645975288004,None,0.8218,1070.4489585477859,None,,,,,,,DEC005,001,2022_May_18_1538,2-25_cond_decay_EYE-try,2021.2.3,168.12776993588744,
left,0.75,1.0,0,1,0,1,0,2,0,2,0,1,2,12,9,,,,,,,,,,,,,,,1s,1071.5050808528904,1072.503429655917,1072.498318750877,None,1073.4972232268192,1074.2488427169155,1073.4972232268192,1074.2488427169155,1074.2488427169155,None,1074.2488427169155,None,space,0.36698474013246596,1074.2488427169155,None,0.7515,1074.7473319808487,None,,,,,,,DEC005,001,2022_May_18_1538,2-25_cond_decay_EYE-try,2021.2.3,168.12776993588744,
right,1.0,0.75,0,1,0,1,0,2,0,2,0,1,3,13,1,,,,,,,,,,,,,,,1s,1075.8067200819496,1076.806432370795,1076.8003746159375,None,1077.8006873319391,1078.3093431568705,1077.8006873319391,1078.3093431568705,1078.3093431568705,None,1078.3093431568705,None,None,,1078.3093431568705,None,0.5089,1079.436671931995,None,,,,,,,DEC005,001,2022_May_18_1538,2-25_cond_decay_EYE-try,2021.2.3,168.12776993588744,
right,1.0,0.75,0,1,0,1,0,2,0,2,0,1,4,14,8,,,,,,,,,,,,,,,1s,1080.487195026828,1081.4917907309718,1081.4791503879242,None,1082.4794652408455,1083.1402643898036,1082.4794652408455,1083.1402643898036,1083.1402643898036,None,1083.1402643898036,None,space,0.39556878502480686,1083.1402643898036,None,0.658,1083.6791399288923,None,,,,,,,DEC005,001,2022_May_18_1538,2-25_cond_decay_EYE-try,2021.2.3,168.12776993588744,
left,1.0,0.75,1,1,0,1,0,2,0,2,0,1,5,15,2,,,,,,,,,,,,,,,1s,1084.7338370929938,1085.7343714868184,1085.722489042906,None,1086.722194181988,1087.6066351698246,1086.722194181988,1087.6066351698246,1087.6066351698246,None,1087.6066351698246,None,space,0.41721113910898566,1087.6066351698246,None,0.8849,1088.1581587758847,None,,,,,,,DEC005,001,2022_May_18_1538,2-25_cond_decay_EYE-try,2021.2.3,168.12776993588744,
right,0.75,1.0,1,1,0,1,0,2,0,2,0,1,6,16,0,,,,,,,,,,,,,,,1s,1089.2127930438146,1090.2124893369619,1090.206360410899,None,1091.2065851788502,1091.9168811158743,1091.2065851788502,1091.9168811158743,1091.9111776228528,None,1091.9111776228528,None,space,0.42465545888990164,1091.9111776228528,None,0.7084,1092.4677759939805,None,,,,,,,DEC005,001,2022_May_18_1538,2-25_cond_decay_EYE-try,2021.2.3,168.12776993588744,
left,0.75,1.0,0,1,0,1,0,2,0,2,0,1,7,17,7,,,,,,,,,,,,,,,1s,1093.527891214937,1094.5282695319038,1094.516263855854,None,1095.5161716048606,1095.7402673889883,1095.5161716048606,1095.7402673889883,1095.7402673889883,None,1095.7402673889883,None,space,0.3635692000389099,1095.7402673889883,None,0.2249,1096.2376955088694,None,,,,,,,DEC005,001,2022_May_18_1538,2-25_cond_decay_EYE-try,2021.2.3,168.12776993588744,
right,1.0,0.75,0,1,0,1,0,2,0,2,0,1,8,18,5,,,,,,,,,,,,,,,1s,1097.2915323348716,1098.2911473179702,1098.2851444999687,None,1099.2858647787943,1099.662109777797,1099.2858647787943,1099.662109777797,1099.656398113817,None,1099.656398113817,None,space,0.4154410529881716,1099.656398113817,None,0.3731,1100.2018452167977,None,,,,,,,DEC005,001,2022_May_18_1538,2-25_cond_decay_EYE-try,2021.2.3,168.12776993588744,
left,0.75,1.0,0,1,0,1,0,2,0,2,0,1,9,19,3,,,,,,,,,,,,,,,1s,1101.2607544569764,1102.260889844969,1102.2488728328608,None,1103.24928090279,1103.4847203618847,1103.24928090279,1103.4847203618847,1103.4847203618847,None,1103.4847203618847,None,space,0.3071317789144814,1103.4847203618847,None,0.2357,1103.9219556879252,None,,,,,,,DEC005,001,2022_May_18_1538,2-25_cond_decay_EYE-try,2021.2.3,168.12776993588744,
,,,,1,0,1,0,2,0,2,0,,,,,,,,,,,,,,,,,,,,,,,,,,,,,,,,,,,,,,,,,,,,,DEC005,001,2022_May_18_1538,2-25_cond_decay_EYE-try,2021.2.3,168.12776993588744,
left,0.75,1.0,0,1,0,1,0,3,0,3,0,0,0,0,3,,,,,,,,,1104.814236808801,None,1104.814236808801,None,1104.814236808801,None,3s,1166.4059502959717,1167.405218776781,1167.3935005899984,None,1168.3937264839187,1169.933261943981,1168.3937264839187,1169.933261943981,1169.933261943981,None,1169.933261943981,None,space,0.338581875897944,1169.933261943981,None,1.5364,1170.4063857397996,None,,,,,,,DEC005,001,2022_May_18_1538,2-25_cond_decay_EYE-try,2021.2.3,168.12776993588744,
right,1.0,0.75,0,1,0,1,0,3,0,3,0,0,1,1,0,,,,,,,,,,,,,,,3s,1171.4596449909732,1172.4603421587963,1172.4542269459926,None,1173.4539391789585,1176.0842046579346,1173.4539391789585,1176.0842046579346,1176.0842046579346,None,1176.0842046579346,None,space,0.3156403498724103,1176.0842046579346,None,2.6313,1176.5330529399216,None,,,,,,,DEC005,001,2022_May_18_1538,2-25_cond_decay_EYE-try,2021.2.3,168.12776993588744,
right,1.0,0.75,0,1,0,1,0,3,0,3,0,0,2,2,5,,,,,,,,,,,,,,,3s,1177.58081256086,1178.5817778517958,1178.5689479939174,None,1179.5690436568111,1181.7693507520016,1179.5690436568111,1181.7693507520016,1181.7693507520016,None,1181.7693507520016,None,space,0.4065041090361774,1181.7693507520016,None,2.1979,1182.3146529467776,None,,,,,,,DEC005,001,2022_May_18_1538,2-25_cond_decay_EYE-try,2021.2.3,168.12776993588744,
left,0.75,1.0,0,1,0,1,0,3,0,3,0,0,3,3,1,,,,,,,,,,,,,,,3s,1183.3692241869867,1184.3690135178622,1184.3629512707703,None,1185.363351944834,1188.3565884639975,1185.363351944834,1188.3565884639975,1188.3565884639975,None,1188.3565884639975,None,space,0.3152508558705449,1188.3565884639975,None,2.9946,1188.8007335108705,None,,,,,,,DEC005,001,2022_May_18_1538,2-25_cond_decay_EYE-try,2021.2.3,168.12776993588744,
left,0.75,1.0,0,1,0,1,0,3,0,3,0,0,4,4,7,,,,,,,,,,,,,,,3s,1189.8477201957721,1190.847838638816,1190.8362570127938,None,1191.8359246638138,1192.1996543528512,1191.8359246638138,1192.1996543528512,1192.1996543528512,None,1192.1996543528512,None,space,0.7042085458524525,1192.1996543528512,None,0.3621,1193.0420991918072,None,,,,,,,DEC005,001,2022_May_18_1538,2-25_cond_decay_EYE-try,2021.2.3,168.12776993588744,
right,1.0,0.75,0,1,0,1,0,3,0,3,0,0,5,5,8,,,,,,,,,,,,,,,3s,1194.1022983398288,1195.1021632549819,1195.0897053608205,None,1196.0907147289254,1197.9401229068171,1196.0907147289254,1197.9401229068171,1197.9341032907832,None,1197.9341032907832,None,space,0.47375399013981223,1197.9341032907832,None,1.8442,1198.5442582748365,None,,,,,,,DEC005,001,2022_May_18_1538,2-25_cond_decay_EYE-try,2021.2.3,168.12776993588744,
right,1.0,0.75,0,1,0,1,0,3,0,3,0,0,6,6,4,,,,,,,,,,,,,,,3s,1199.598978613969,1200.5996439659502,1200.5929901208729,None,1201.5932566218544,1204.1517830919474,1201.5932566218544,1204.1517830919474,1204.1460507209413,None,1204.1460507209413,None,space,0.3578117280267179,1204.1460507209413,None,2.5545,1204.641382760834,None,,,,,,,DEC005,001,2022_May_18_1538,2-25_cond_decay_EYE-try,2021.2.3,168.12776993588744,
left,1.0,0.75,1,1,0,1,0,3,0,3,0,0,7,7,2,,,,,,,,,,,,,,,3s,1205.701772093773,1206.7024227709044,1206.6905579608865,None,1207.6903776607942,1210.3019023239613,1207.6903776607942,1210.3019023239613,1210.3019023239613,None,1210.3019023239613,None,space,0.48194544902071357,1210.3019023239613,None,2.6081,1210.9204533218872,None,,,,,,,DEC005,001,2022_May_18_1538,2-25_cond_decay_EYE-try,2021.2.3,168.12776993588744,
left,0.75,1.0,0,1,0,1,0,3,0,3,0,0,8,8,6,,,,,,,,,,,,,,,3s,1211.9749538928736,1212.9745075129904,1212.9688250259496,None,1213.9687606177758,1215.5988928359002,1213.9687606177758,1215.5988928359002,1215.5988928359002,None,1215.5988928359002,None,space,0.3369530469644815,1215.5988928359002,None,1.6298,1216.0668237749487,None,,,,,,,DEC005,001,2022_May_18_1538,2-25_cond_decay_EYE-try,2021.2.3,168.12776993588744,
right,0.75,1.0,1,1,0,1,0,3,0,3,0,0,9,9,9,,,,,,,,,,,,,,,3s,1217.1265448888298,1218.1263971917797,1218.120459089987,None,1219.120022921823,1220.9453508339357,1219.120022921823,1220.9453508339357,1220.939587897854,None,1220.939587897854,None,space,0.3722795769572258,1220.939587897854,None,1.8206,1221.442199822981,None,,,,,,,DEC005,001,2022_May_18_1538,2-25_cond_decay_EYE-try,2021.2.3,168.12776993588744,
right,1.0,0.75,0,1,0,1,0,3,0,3,0,1,0,10,4,,,,,,,,,,,,,,,3s,1222.4953421668615,1223.4954723108094,1223.4896092039999,None,1224.4903359019663,1226.4225519008469,1224.4903359019663,1226.4225519008469,1226.4225519008469,None,1226.4225519008469,None,space,0.361310345120728,1226.4225519008469,None,1.9329,1226.9150125677697,None,,,,,,,DEC005,001,2022_May_18_1538,2-25_cond_decay_EYE-try,2021.2.3,168.12776993588744,
left,0.75,1.0,0,1,0,1,0,3,0,3,0,1,1,11,7,,,,,,,,,,,,,,,3s,1227.9697688068263,1228.9748970109504,1228.9622175749391,None,1229.962377393851,1231.1139552509412,1229.962377393851,1231.1139552509412,1231.1139552509412,None,1231.1139552509412,None,space,0.3818931800778955,1231.1139552509412,None,1.1495,1231.6288554298226,None,,,,,,,DEC005,001,2022_May_18_1538,2-25_cond_decay_EYE-try,2021.2.3,168.12776993588744,
right,1.0,0.75,0,1,0,1,0,3,0,3,0,1,2,12,5,,,,,,,,,,,,,,,3s,1232.6892017917708,1233.6894207699224,1233.6832676299382,None,1234.6833561449312,1235.2170551868621,1234.6833561449312,1235.2170551868621,1235.2170551868621,None,1235.2170551868621,None,space,0.6308019699063152,1235.2170551868621,None,0.5315,1235.9802290247753,None,,,,,,,DEC005,001,2022_May_18_1538,2-25_cond_decay_EYE-try,2021.2.3,168.12776993588744,
left,1.0,0.75,1,1,0,1,0,3,0,3,0,1,3,13,2,,,,,,,,,,,,,,,3s,1237.0406489539891,1238.0415296747815,1238.0355644468218,None,1239.0353592808824,1241.0355815638322,1239.0353592808824,1241.0355815638322,1241.0355815638322,None,1241.0355815638322,None,space,0.4362581539899111,1241.0355815638322,None,1.9979,1241.6102795829065,None,,,,,,,DEC005,001,2022_May_18_1538,2-25_cond_decay_EYE-try,2021.2.3,168.12776993588744,
left,0.75,1.0,0,1,0,1,0,3,0,3,0,1,4,14,6,,,,,,,,,,,,,,,3s,1242.6653306097724,1243.6650134469382,1243.6588798838202,None,1244.659453971777,1245.640924173873,1244.659453971777,1245.640924173873,1245.640924173873,None,1245.640924173873,None,space,0.3429204230196774,1245.640924173873,None,0.9822,1246.1146466829814,None,,,,,,,DEC005,001,2022_May_18_1538,2-25_cond_decay_EYE-try,2021.2.3,168.12776993588744,
right,1.0,0.75,0,1,0,1,0,3,0,3,0,1,5,15,8,,,,,,,,,,,,,,,3s,1247.1698780728038,1248.1745959830005,1248.161858611973,None,1249.1625896368641,1249.835669569904,1249.1625896368641,1249.835669569904,1249.8296830959152,None,1249.8296830959152,None,space,0.47418549307622015,1249.8296830959152,None,0.6668,1250.4404548238963,None,,,,,,,DEC005,001,2022_May_18_1538,2-25_cond_decay_EYE-try,2021.2.3,168.12776993588744,
left,0.75,1.0,0,1,0,1,0,3,0,3,0,1,6,16,3,,,,,,,,,,,,,,,3s,1251.4909471438732,1252.4951383078005,1252.4833696337882,None,1253.4834191808477,1254.810933885863,1253.4834191808477,1254.810933885863,1254.810933885863,None,1254.810933885863,None,space,0.38893174892291427,1254.810933885863,None,1.3269,1255.3377796309069,None,,,,,,,DEC005,001,2022_May_18_1538,2-25_cond_decay_EYE-try,2021.2.3,168.12776993588744,
right,1.0,0.75,0,1,0,1,0,3,0,3,0,1,7,17,0,,,,,,,,,,,,,,,3s,1256.3921807198785,1257.3924322789535,1257.3858038478065,None,1258.3858367169742,1260.4292062388267,1258.3858367169742,1260.4292062388267,1260.4292062388267,None,1260.4292062388267,None,space,0.30664850282482803,1260.4292062388267,None,2.0417,1260.8668694219086,None,,,,,,,DEC005,001,2022_May_18_1538,2-25_cond_decay_EYE-try,2021.2.3,168.12776993588744,
right,0.75,1.0,1,1,0,1,0,3,0,3,0,1,8,18,9,,,,,,,,,,,,,,,3s,1261.9191216558684,1262.91905772686,1262.913187662838,None,1263.9138742028736,1266.0101737699006,1263.9138742028736,1266.0101737699006,1266.0044219468255,None,1266.0044219468255,None,space,0.4114282338414341,1266.0044219468255,None,2.087,1266.5501661947928,None,,,,,,,DEC005,001,2022_May_18_1538,2-25_cond_decay_EYE-try,2021.2.3,168.12776993588744,
left,0.75,1.0,0,1,0,1,0,3,0,3,0,1,9,19,1,,,,,,,,,,,,,,,3s,1267.6041936438996,1268.60476762685,1268.5926400858443,None,1269.5926617588848,1270.4354378229473,1269.5926617588848,1270.4354378229473,1270.4296107059345,None,1270.4296107059345,None,space,0.42625603708438575,1270.4296107059345,None,0.8375,1270.991709654918,None,,,,,,,DEC005,001,2022_May_18_1538,2-25_cond_decay_EYE-try,2021.2.3,168.12776993588744,
,,,,1,0,1,0,3,0,3,0,,,,,,,,,,,,,,,,,,,,,,,,,,,,,,,,,,,,,,,,,,,,,DEC005,001,2022_May_18_1538,2-25_cond_decay_EYE-try,2021.2.3,168.12776993588744,
,,,,1,0,1,0,,,,,,,,,,,,,,,,,,,,,,,,,,,,,,,,,,,,,,,,,,,1271.8782773728017,None,1271.8782773728017,None,1271.8782773728017,None,DEC005,001,2022_May_18_1538,2-25_cond_decay_EYE-try,2021.2.3,168.12776993588744,
left,0.75,1.0,0,2,0,2,0,0,0,0,0,0,0,0,2,,,,,,,,,1276.8895034377929,None,1276.8895034377929,None,1276.8895034377929,None,1s,1282.1799725948367,1283.1799469417892,1283.173752359813,None,1284.1739454448689,1284.519352289848,1284.1739454448689,1284.519352289848,1284.519352289848,None,1284.519352289848,None,space,0.4245052251499146,1284.519352289848,None,0.343,1285.0766149538103,None,,,,,,,DEC005,001,2022_May_18_1538,2-25_cond_decay_EYE-try,2021.2.3,168.12776993588744,
right,1.0,0.75,0,2,0,2,0,0,0,0,0,0,1,1,6,,,,,,,,,,,,,,,1s,1286.1310335078742,1287.1310522388667,1287.1193692169618,None,1288.119478812907,1288.4764724739362,1288.119478812907,1288.4764724739362,1288.4764724739362,None,1288.4764724739362,None,space,0.37937956396490335,1288.4764724739362,None,0.3556,1288.987665718887,None,,,,,,,DEC005,001,2022_May_18_1538,2-25_cond_decay_EYE-try,2021.2.3,168.12776993588744,
right,0.75,1.0,1,2,0,2,0,0,0,0,0,0,2,2,8,,,,,,,,,,,,,,,1s,1290.0339759709314,1291.0338622459676,1291.027738848934,None,1292.028698323993,1292.45190434088,1292.028698323993,1292.45190434088,1292.45190434088,None,1292.45190434088,None,space,0.3399579229298979,1292.45190434088,None,0.4223,1292.9253035360016,None,,,,,,,DEC005,001,2022_May_18_1538,2-25_cond_decay_EYE-try,2021.2.3,168.12776993588744,
left,0.75,1.0,0,2,0,2,0,0,0,0,0,0,3,3,0,,,,,,,,,,,,,,,1s,1293.9799475399777,1294.9794676278252,1294.973445105832,None,1295.973826933885,1296.1928328308277,1295.973826933885,1296.1928328308277,1296.1871335068718,None,1296.1871335068718,None,space,0.3647412131540477,1296.1871335068718,None,0.2146,1296.6887531988323,None,,,,,,,DEC005,001,2022_May_18_1538,2-25_cond_decay_EYE-try,2021.2.3,168.12776993588744,
left,0.75,1.0,0,2,0,2,0,0,0,0,0,0,4,4,4,,,,,,,,,,,,,,,1s,1297.7429349119775,1298.7437363718636,1298.7376892038155,None,1299.7377067878842,1300.3732574558817,1299.7377067878842,1300.3732574558817,1300.3732574558817,None,1300.3732574558817,None,space,0.33862180705182254,1300.3732574558817,None,0.6312,1300.846779530868,None,,,,,,,DEC005,001,2022_May_18_1538,2-25_cond_decay_EYE-try,2021.2.3,168.12776993588744,
left,0.75,1.0,0,2,0,2,0,0,0,0,0,0,5,5,9,,,,,,,,,,,,,,,1s,1301.8884703728836,1302.8886672069784,1302.8828021828085,None,1303.8821780919097,1304.555280357832,1303.8821780919097,1304.555280357832,1304.555280357832,None,1304.555280357832,None,None,,1304.555280357832,None,0.6713,1305.682616535807,None,,,,,,,DEC005,001,2022_May_18_1538,2-25_cond_decay_EYE-try,2021.2.3,168.12776993588744,
right,1.0,0.75,0,2,0,2,0,0,0,0,0,0,6,6,1,,,,,,,,,,,,,,,1s,1306.7376051829197,1307.7366732158698,1307.730726107955,None,1308.730631514918,1309.5184090198018,1308.730631514918,1309.5184090198018,1309.5184090198018,None,1309.5184090198018,None,space,0.4094567389693111,1309.5184090198018,None,0.7862,1310.0639481169637,None,,,,,,,DEC005,001,2022_May_18_1538,2-25_cond_decay_EYE-try,2021.2.3,168.12776993588744,
left,1.0,0.75,1,2,0,2,0,0,0,0,0,0,7,7,3,,,,,,,,,,,,,,,1s,1311.1186380209401,1312.1185541688465,1312.1061553768814,None,1313.1069902938325,1313.6585323028266,1313.1069902938325,1313.6585323028266,1313.6585323028266,None,1313.6585323028266,None,None,,1313.6585323028266,None,0.5514,1314.7855266737752,None,,,,,,,DEC005,001,2022_May_18_1538,2-25_cond_decay_EYE-try,2021.2.3,168.12776993588744,
right,1.0,0.75,0,2,0,2,0,0,0,0,0,0,8,8,5,,,,,,,,,,,,,,,1s,1315.833941915771,1316.8341478388757,1316.821442537941,None,1317.8220079969615,1317.9790133489296,1317.8220079969615,1317.9790133489296,1317.9790133489296,None,1317.9790133489296,None,space,0.4608533859718591,1317.9790133489296,None,0.1568,1318.5735647717956,None,,,,,,,DEC005,001,2022_May_18_1538,2-25_cond_decay_EYE-try,2021.2.3,168.12776993588744,
left,0.75,1.0,0,2,0,2,0,0,0,0,0,0,9,9,7,,,,,,,,,,,,,,,1s,1319.6275347347837,1320.6276694028638,1320.6161605038214,None,1321.6161720049568,1321.8707845769823,1321.6161720049568,1321.8707845769823,1321.8707845769823,None,1321.8707845769823,None,space,0.6330846848431975,1321.8707845769823,None,0.2529,1322.6402421379462,None,,,,,,,DEC005,001,2022_May_18_1538,2-25_cond_decay_EYE-try,2021.2.3,168.12776993588744,
left,0.75,1.0,0,2,0,2,0,0,0,0,0,1,0,10,9,,,,,,,,,,,,,,,1s,1323.694997699,1324.7003981547896,1324.687893040944,None,1325.6888944439124,1326.1862246659584,1325.6888944439124,1326.1862246659584,1326.1804108407814,None,1326.1804108407814,None,space,0.331464079907164,1326.1804108407814,None,0.4921,1326.6464546909556,None,,,,,,,DEC005,001,2022_May_18_1538,2-25_cond_decay_EYE-try,2021.2.3,168.12776993588744,
right,0.75,1.0,1,2,0,2,0,0,0,0,0,1,1,11,8,,,,,,,,,,,,,,,1s,1327.7001016237773,1328.7009828209411,1328.6949182059616,None,1329.6944930399768,1330.131857191911,1329.6944930399768,1330.131857191911,1330.125867635943,None,1330.125867635943,None,space,0.4100048418622464,1330.125867635943,None,0.4333,1330.6645792829804,None,,,,,,,DEC005,001,2022_May_18_1538,2-25_cond_decay_EYE-try,2021.2.3,168.12776993588744,
right,1.0,0.75,0,2,0,2,0,0,0,0,0,1,2,12,6,,,,,,,,,,,,,,,1s,1331.7182024877984,1332.7190079879947,1332.7066535069607,None,1333.7122383499518,1334.3132918919437,1333.7122383499518,1334.3132918919437,1334.3074455049355,None,1334.3074455049355,None,space,0.3324177509639412,1334.3074455049355,None,0.5956,1334.768227911787,None,,,,,,,DEC005,001,2022_May_18_1538,2-25_cond_decay_EYE-try,2021.2.3,168.12776993588744,
left,1.0,0.75,1,2,0,2,0,0,0,0,0,1,3,13,3,,,,,,,,,,,,,,,1s,1335.8213177467696,1336.821690149838,1336.810023457976,None,1337.8096207459457,1338.0272646169178,1337.8096207459457,1338.0272646169178,1338.0272646169178,None,1338.0272646169178,None,space,0.3886140969116241,1338.0272646169178,None,0.2141,1338.5483220238239,None,,,,,,,DEC005,001,2022_May_18_1538,2-25_cond_decay_EYE-try,2021.2.3,168.12776993588744,
right,1.0,0.75,0,2,0,2,0,0,0,0,0,1,4,14,2,,,,,,,,,,,,,,,1s,1339.6097767169122,1340.6091863508336,1340.6034973917995,None,1341.603789866902,1341.889191469876,1341.603789866902,1341.889191469876,1341.8831562958658,None,1341.8831562958658,None,space,0.3407083738129586,1341.8831562958658,None,0.28,1342.3546365648508,None,,,,,,,DEC005,001,2022_May_18_1538,2-25_cond_decay_EYE-try,2021.2.3,168.12776993588744,
left,0.75,1.0,0,2,0,2,0,0,0,0,0,1,5,15,4,,,,,,,,,,,,,,,1s,1343.405007749796,1344.409965731902,1344.3973003798164,None,1345.3977403258905,1345.6224784879014,1345.3977403258905,1345.6224784879014,1345.6165304929018,None,1345.6165304929018,None,space,0.29534287308342755,1345.6165304929018,None,0.2186,1346.0400158248376,None,,,,,,,DEC005,001,2022_May_18_1538,2-25_cond_decay_EYE-try,2021.2.3,168.12776993588744,
right,1.0,0.75,0,2,0,2,0,0,0,0,0,1,6,16,1,,,,,,,,,,,,,,,1s,1347.0997678667773,1348.1008051508106,1348.0959385449532,None,1349.094269854948,1349.3439003459644,1349.094269854948,1349.3439003459644,1349.3382524338085,None,1349.3382524338085,None,space,0.5096365220379084,1349.3382524338085,None,0.2468,1349.9849822539836,None,,,,,,,DEC005,001,2022_May_18_1538,2-25_cond_decay_EYE-try,2021.2.3,168.12776993588744,
left,0.75,1.0,0,2,0,2,0,0,0,0,0,1,7,17,7,,,,,,,,,,,,,,,1s,1351.0410481907893,1352.0457154638134,1352.0339500277769,None,1353.0330279627815,1353.6162372478284,1353.0330279627815,1353.6162372478284,1353.610413825838,None,1353.610413825838,None,space,0.4854579020757228,1353.610413825838,None,0.5777,1354.2339306869544,None,,,,,,,DEC005,001,2022_May_18_1538,2-25_cond_decay_EYE-try,2021.2.3,168.12776993588744,
right,1.0,0.75,0,2,0,2,0,0,0,0,0,1,8,18,5,,,,,,,,,,,,,,,1s,1355.2936099357903,1356.293861108832,1356.287698711967,None,1357.2875439189374,1358.0816838019527,1357.2875439189374,1358.0816838019527,1358.0816838019527,None,1358.0816838019527,None,space,0.29419211810454726,1358.0816838019527,None,0.7946,1358.5072735138237,None,,,,,,,DEC005,001,2022_May_18_1538,2-25_cond_decay_EYE-try,2021.2.3,168.12776993588744,
left,0.75,1.0,0,2,0,2,0,0,0,0,0,1,9,19,0,,,,,,,,,,,,,,,1s,1359.5623537579086,1360.5666489799041,1360.554969587829,None,1361.5542811728083,1361.7732516517863,1361.5542811728083,1361.7732516517863,1361.7732516517863,None,1361.7732516517863,None,space,0.338624631986022,1361.7732516517863,None,0.2169,1362.2402392388321,None,,,,,,,DEC005,001,2022_May_18_1538,2-25_cond_decay_EYE-try,2021.2.3,168.12776993588744,
,,,,2,0,2,0,0,0,0,0,,,,,,,,,,,,,,,,,,,,,,,,,,,,,,,,,,,,,,,,,,,,,DEC005,001,2022_May_18_1538,2-25_cond_decay_EYE-try,2021.2.3,168.12776993588744,
right,1.0,0.75,0,2,0,2,0,1,0,1,0,0,0,0,5,,,,,,,,,1363.1306513438467,None,1363.1306513438467,None,1363.1306513438467,None,5s,1365.5789704269264,1366.5783677899744,1366.5726683479734,None,1367.5728116268292,1371.6148991978262,1367.5728116268292,1371.6148991978262,1371.6148991978262,None,1371.6148991978262,None,space,0.36095952382311225,1371.6148991978262,None,4.0416,1372.113505774876,None,,,,,,,DEC005,001,2022_May_18_1538,2-25_cond_decay_EYE-try,2021.2.3,168.12776993588744,
left,1.0,0.75,1,2,0,2,0,1,0,1,0,0,1,1,6,,,,,,,,,,,,,,,5s,1373.1730594048277,1374.172775068786,1374.1660469479393,None,1375.1664137039334,1378.7191142949741,1375.1664137039334,1378.7191142949741,1378.7134059269447,None,1378.7134059269447,None,space,0.4384725010022521,1378.7134059269447,None,3.5479,1379.2812161119655,None,,,,,,,DEC005,001,2022_May_18_1538,2-25_cond_decay_EYE-try,2021.2.3,168.12776993588744,
right,1.0,0.75,0,2,0,2,0,1,0,1,0,0,2,2,7,,,,,,,,,,,,,,,5s,1380.3425528409425,1381.3416943647899,1381.3366982198786,None,1382.3366532258224,1382.724388374947,1382.3366532258224,1382.724388374947,1382.724388374947,None,1382.724388374947,None,None,,1382.724388374947,None,0.3871,1383.8512163709383,None,,,,,,,DEC005,001,2022_May_18_1538,2-25_cond_decay_EYE-try,2021.2.3,168.12776993588744,
right,1.0,0.75,0,2,0,2,0,1,0,1,0,0,3,3,8,,,,,,,,,,,,,,,5s,1384.9001385439187,1385.8993440088816,1385.8933267579414,None,1386.8931591429282,1388.1125083668157,1386.8931591429282,1388.1125083668157,1388.1068681399338,None,1388.1068681399338,None,space,0.46102100191637874,1388.1068681399338,None,1.2142,1388.7062758898828,None,,,,,,,DEC005,001,2022_May_18_1538,2-25_cond_decay_EYE-try,2021.2.3,168.12776993588744,
left,0.75,1.0,0,2,0,2,0,1,0,1,0,0,4,4,1,,,,,,,,,,,,,,,5s,1389.75463410886,1390.7545233038254,1390.7420593597926,None,1391.747842175886,1393.615664779907,1391.747842175886,1393.615664779907,1393.6098467619158,None,1393.6098467619158,None,space,0.414031462976709,1393.6098467619158,None,1.8622,1394.1555669899099,None,,,,,,,DEC005,001,2022_May_18_1538,2-25_cond_decay_EYE-try,2021.2.3,168.12776993588744,
left,0.75,1.0,0,2,0,2,0,1,0,1,0,0,5,5,0,,,,,,,,,,,,,,,5s,1395.2089842038695,1396.2090698799584,1396.202793244971,None,1397.202902649995,1398.870406319853,1397.202902649995,1398.870406319853,1398.8645964988973,None,1398.8645964988973,None,space,0.38328745891340077,1398.8645964988973,None,1.6616,1399.38487079693,None,,,,,,,DEC005,001,2022_May_18_1538,2-25_cond_decay_EYE-try,2021.2.3,168.12776993588744,
right,1.0,0.75,0,2,0,2,0,1,0,1,0,0,6,6,9,,,,,,,,,,,,,,,5s,1400.4394384189509,1401.4384970678948,1401.432814914966,None,1402.433289912995,1406.3979577759746,1402.433289912995,1406.3979577759746,1406.392096391879,None,1406.392096391879,None,space,0.29578199493698776,1406.392096391879,None,3.959,1406.8221767998766,None,,,,,,,DEC005,001,2022_May_18_1538,2-25_cond_decay_EYE-try,2021.2.3,168.12776993588744,
right,0.75,1.0,1,2,0,2,0,1,0,1,0,0,7,7,4,,,,,,,,,,,,,,,5s,1407.8753185959067,1408.8746182629839,1408.8686708628666,None,1409.8688011469785,1412.0382218079176,1409.8688011469785,1412.0382218079176,1412.0382218079176,None,1412.0382218079176,None,space,0.5056523401290178,1412.0382218079176,None,2.1677,1412.6814596678596,None,,,,,,,DEC005,001,2022_May_18_1538,2-25_cond_decay_EYE-try,2021.2.3,168.12776993588744,
left,0.75,1.0,0,2,0,2,0,1,0,1,0,0,8,8,2,,,,,,,,,,,,,,,5s,1413.7357072387822,1414.7352395048365,1414.7291796689387,None,1415.729760686867,1415.9674648349173,1415.729760686867,1415.9674648349173,1415.9616722168867,None,1415.9616722168867,None,space,0.4382216790691018,1415.9616722168867,None,0.2335,1416.5300783498678,None,,,,,,,DEC005,001,2022_May_18_1538,2-25_cond_decay_EYE-try,2021.2.3,168.12776993588744,
left,0.75,1.0,0,2,0,2,0,1,0,1,0,0,9,9,3,,,,,,,,,,,,,,,5s,1417.585948830936,1418.5899128827732,1418.578138453886,None,1419.5786277339794,1420.566140179988,1419.5786277339794,1420.566140179988,1420.566140179988,None,1420.566140179988,None,space,0.5137455130461603,1420.566140179988,None,0.9848,1421.2095417168457,None,,,,,,,DEC005,001,2022_May_18_1538,2-25_cond_decay_EYE-try,2021.2.3,168.12776993588744,
left,0.75,1.0,0,2,0,2,0,1,0,1,0,1,0,10,1,,,,,,,,,,,,,,,5s,1422.2566002127714,1423.256273995852,1423.2503060828894,None,1424.25082017784,1425.245088621974,1424.25082017784,1425.245088621974,1425.245088621974,None,1425.245088621974,None,space,0.34680414106696844,1425.245088621974,None,0.9948,1425.7299815418664,None,,,,,,,DEC005,001,2022_May_18_1538,2-25_cond_decay_EYE-try,2021.2.3,168.12776993588744,
right,0.75,1.0,1,2,0,2,0,1,0,1,0,1,1,11,4,,,,,,,,,,,,,,,5s,1426.7842816608027,1427.783527429914,1427.778486607829,None,1428.7776997759938,1432.421560257906,1428.7776997759938,1432.421560257906,1432.4157473458908,None,1432.4157473458908,None,space,0.47213980299420655,1432.4157473458908,None,3.6413,1433.0212483259384,None,,,,,,,DEC005,001,2022_May_18_1538,2-25_cond_decay_EYE-try,2021.2.3,168.12776993588744,
left,0.75,1.0,0,2,0,2,0,1,0,1,0,1,2,12,0,,,,,,,,,,,,,,,5s,1434.0811411088798,1435.081418077927,1435.0685292058624,None,1436.069206149783,1439.9904248428065,1436.069206149783,1439.9904248428065,1439.9904248428065,None,1439.9904248428065,None,space,0.33746436797082424,1439.9904248428065,None,3.9206,1440.462389696855,None,,,,,,,DEC005,001,2022_May_18_1538,2-25_cond_decay_EYE-try,2021.2.3,168.12776993588744,
right,1.0,0.75,0,2,0,2,0,1,0,1,0,1,3,13,9,,,,,,,,,,,,,,,5s,1441.511276316829,1442.5109059179667,1442.499127660878,None,1443.4995211178903,1447.468783147866,1443.4995211178903,1447.468783147866,1447.468783147866,None,1447.468783147866,None,space,0.3710928801447153,1447.468783147866,None,3.9657,1447.9732465499546,None,,,,,,,DEC005,001,2022_May_18_1538,2-25_cond_decay_EYE-try,2021.2.3,168.12776993588744,
right,1.0,0.75,0,2,0,2,0,1,0,1,0,1,4,14,7,,,,,,,,,,,,,,,5s,1449.0271962077823,1450.0317097629886,1450.0198880748358,None,1451.0203020609915,1451.402213579975,1451.0203020609915,1451.402213579975,1451.402213579975,None,1451.402213579975,None,space,0.3896730050910264,1451.402213579975,None,0.3804,1451.9227983939927,None,,,,,,,DEC005,001,2022_May_18_1538,2-25_cond_decay_EYE-try,2021.2.3,168.12776993588744,
right,1.0,0.75,0,2,0,2,0,1,0,1,0,1,5,15,8,,,,,,,,,,,,,,,5s,1452.9711567549966,1453.97105869581,1453.9652384947985,None,1454.971037681913,1459.7124242379796,1454.971037681913,1459.7124242379796,1459.706286597997,None,1459.706286597997,None,space,0.24560181191191077,1459.706286597997,None,4.7377,1460.0861753998324,None,,,,,,,DEC005,001,2022_May_18_1538,2-25_cond_decay_EYE-try,2021.2.3,168.12776993588744,
left,0.75,1.0,0,2,0,2,0,1,0,1,0,1,6,16,2,,,,,,,,,,,,,,,5s,1461.140661995858,1462.1412214657757,1462.135089305928,None,1463.135317997774,1467.4329525849316,1463.135317997774,1467.4329525849316,1467.427054178901,None,1467.427054178901,None,space,0.6048325709998608,1467.427054178901,None,4.2921,1468.164786301786,None,,,,,,,DEC005,001,2022_May_18_1538,2-25_cond_decay_EYE-try,2021.2.3,168.12776993588744,
left,0.75,1.0,0,2,0,2,0,1,0,1,0,1,7,17,3,,,,,,,,,,,,,,,5s,1469.2140238077845,1470.213255153969,1470.2080405089073,None,1471.207910975907,1471.4385040029883,1471.207910975907,1471.4385040029883,1471.4385040029883,None,1471.4385040029883,None,space,0.4253856909926981,1471.4385040029883,None,0.2289,1472.0019399479497,None,,,,,,,DEC005,001,2022_May_18_1538,2-25_cond_decay_EYE-try,2021.2.3,168.12776993588744,
right,1.0,0.75,0,2,0,2,0,1,0,1,0,1,8,18,5,,,,,,,,,,,,,,,5s,1473.0559798718896,1474.0561670397874,1474.0502621768974,None,1475.0498556979,1476.7414889398497,1475.0498556979,1476.7414889398497,1476.7414889398497,None,1476.7414889398497,None,space,0.3943985910154879,1476.7414889398497,None,1.6906,1477.274148011813,None,,,,,,,DEC005,001,2022_May_18_1538,2-25_cond_decay_EYE-try,2021.2.3,168.12776993588744,
left,1.0,0.75,1,2,0,2,0,1,0,1,0,1,9,19,6,,,,,,,,,,,,,,,5s,1478.335207798984,1479.3342672069557,1479.3230818607844,None,1480.3229348207824,1483.535210217815,1480.3229348207824,1483.535210217815,1483.535210217815,None,1483.535210217815,None,space,0.8246618688572198,1483.535210217815,None,3.2126,1484.4940311408136,None,,,,,,,DEC005,001,2022_May_18_1538,2-25_cond_decay_EYE-try,2021.2.3,168.12776993588744,
,,,,2,0,2,0,1,0,1,0,,,,,,,,,,,,,,,,,,,,,,,,,,,,,,,,,,,,,,,,,,,,,DEC005,001,2022_May_18_1538,2-25_cond_decay_EYE-try,2021.2.3,168.12776993588744,
right,1.0,0.75,0,2,0,2,0,2,0,2,0,0,0,0,4,,,,,,,,,1485.3843452748843,None,1485.3843452748843,None,1485.3843452748843,None,10s,1495.074184375815,1496.0736531359144,1496.06775739789,None,1497.0676156869158,1503.4310142458417,1497.0676156869158,1503.4310142458417,1503.4310142458417,None,1503.4310142458417,None,None,,1503.4310142458417,None,6.364,1504.5588643408846,None,,,,,,,DEC005,001,2022_May_18_1538,2-25_cond_decay_EYE-try,2021.2.3,168.12776993588744,
right,1.0,0.75,0,2,0,2,0,2,0,2,0,0,1,1,9,,,,,,,,,,,,,,,10s,1505.606917120982,1506.607516966993,1506.6008142058272,None,1507.6012950888835,1514.6614115249831,1507.6012950888835,1514.6614115249831,1514.6614115249831,None,1514.6614115249831,None,space,0.490570783149451,1514.6614115249831,None,7.0608,1515.2863026969135,None,,,,,,,DEC005,001,2022_May_18_1538,2-25_cond_decay_EYE-try,2021.2.3,168.12776993588744,
right,0.75,1.0,1,2,0,2,0,2,0,2,0,0,2,2,6,,,,,,,,,,,,,,,10s,1516.3344467869028,1517.334717115853,1517.3286092388444,None,1518.3282743748277,1524.2374189808033,1518.3282743748277,1524.2374189808033,1524.2374189808033,None,1524.2374189808033,None,space,0.6744883451610804,1524.2374189808033,None,5.9099,1525.0497928939294,None,,,,,,,DEC005,001,2022_May_18_1538,2-25_cond_decay_EYE-try,2021.2.3,168.12776993588744,
left,0.75,1.0,0,2,0,2,0,2,0,2,0,0,3,3,8,,,,,,,,,,,,,,,10s,1526.109865102917,1527.109579181997,1527.0973328307737,None,1528.0981779298745,1531.7533201288898,1528.0981779298745,1531.7533201288898,1531.7473721648566,None,1531.7473721648566,None,space,0.4445267890114337,1531.7473721648566,None,3.6493,1532.3281212409493,None,,,,,,,DEC005,001,2022_May_18_1538,2-25_cond_decay_EYE-try,2021.2.3,168.12776993588744,
left,0.75,1.0,0,2,0,2,0,2,0,2,0,0,4,4,3,,,,,,,,,,,,,,,10s,1533.383120414801,1534.3821063649375,1534.3762949928641,None,1535.3770289109088,1536.1234971338417,1535.3770289109088,1536.1234971338417,1536.116815978894,None,1536.116815978894,None,space,0.4670782811008394,1536.116815978894,None,0.7408,1536.722556344932,None,,,,,,,DEC005,001,2022_May_18_1538,2-25_cond_decay_EYE-try,2021.2.3,168.12776993588744,
right,1.0,0.75,0,2,0,2,0,2,0,2,0,0,5,5,2,,,,,,,,,,,,,,,10s,1537.782321472885,1538.7822937797755,1538.770399373956,None,1539.7701865958516,1548.6312145809643,1539.7701865958516,1548.6312145809643,1548.6312145809643,None,1548.6312145809643,None,None,,1548.6312145809643,None,8.858,1549.757812649943,None,,,,,,,DEC005,001,2022_May_18_1538,2-25_cond_decay_EYE-try,2021.2.3,168.12776993588744,
left,1.0,0.75,1,2,0,2,0,2,0,2,0,0,6,6,1,,,,,,,,,,,,,,,10s,1550.8082440078724,1551.8123678858392,1551.8007818139158,None,1552.800702832872,1552.9639197669458,1552.800702832872,1552.9639197669458,1552.9639197669458,None,1552.9639197669458,None,None,,1552.9639197669458,None,0.1628,1554.0858959658071,None,,,,,,,DEC005,001,2022_May_18_1538,2-25_cond_decay_EYE-try,2021.2.3,168.12776993588744,
right,1.0,0.75,0,2,0,2,0,2,0,2,0,0,7,7,7,,,,,,,,,,,,,,,10s,1555.1403495448176,1556.1399370438885,1556.1337837427855,None,1557.133387845941,1558.6856690209825,1557.133387845941,1558.6856690209825,1558.6856690209825,None,1558.6856690209825,None,space,0.4502144979778677,1558.6856690209825,None,1.5523,1559.2789936338086,None,,,,,,,DEC005,001,2022_May_18_1538,2-25_cond_decay_EYE-try,2021.2.3,168.12776993588744,
left,0.75,1.0,0,2,0,2,0,2,0,2,0,0,8,8,0,,,,,,,,,,,,,,,10s,1560.3342641168274,1561.3342357748188,1561.3275646099355,None,1562.3283069278114,1565.8561296379194,1562.3283069278114,1565.8561296379194,1565.8504065838642,None,1565.8504065838642,None,None,,1565.8504065838642,None,3.5259,1566.9819900598377,None,,,,,,,DEC005,001,2022_May_18_1538,2-25_cond_decay_EYE-try,2021.2.3,168.12776993588744,
right,1.0,0.75,0,2,0,2,0,2,0,2,0,0,9,9,5,,,,,,,,,,,,,,,10s,1568.0368336488027,1569.0365745578893,1569.024819950806,None,1570.025025104871,1574.6185295418836,1570.025025104871,1574.6185295418836,1574.6185295418836,None,1574.6185295418836,None,space,0.3253682260401547,1574.6185295418836,None,4.5948,1575.0848324769177,None,,,,,,,DEC005,001,2022_May_18_1538,2-25_cond_decay_EYE-try,2021.2.3,168.12776993588744,
right,1.0,0.75,0,2,0,2,0,2,0,2,0,1,0,10,5,,,,,,,,,,,,,,,10s,1576.1337190829217,1577.1329504519235,1577.126962771872,None,1578.1270836158656,1586.8974256608635,1578.1270836158656,1586.8974256608635,1586.8974256608635,None,1586.8974256608635,None,space,0.5584696510341018,1586.8974256608635,None,8.7706,1587.589004566893,None,,,,,,,DEC005,001,2022_May_18_1538,2-25_cond_decay_EYE-try,2021.2.3,168.12776993588744,
right,1.0,0.75,0,2,0,2,0,2,0,2,0,1,1,11,7,,,,,,,,,,,,,,,10s,1588.6433786889538,1589.6485041468404,1589.6359108688775,None,1590.6362240638118,1598.1032827778254,1590.6362240638118,1598.1032827778254,1598.1032827778254,None,1598.1032827778254,None,space,0.36062868195585907,1598.1032827778254,None,7.465,1598.5941851718817,None,,,,,,,DEC005,001,2022_May_18_1538,2-25_cond_decay_EYE-try,2021.2.3,168.12776993588744,
left,0.75,1.0,0,2,0,2,0,2,0,2,0,1,2,12,8,,,,,,,,,,,,,,,10s,1599.6547797648236,1600.654636024963,1600.6421520058066,None,1601.642006188864,1603.1090234748553,1601.642006188864,1603.1090234748553,1603.1090234748553,None,1603.1090234748553,None,space,0.13087900611571968,1603.1090234748553,None,1.467,1603.3712147518527,None,,,,,,,DEC005,001,2022_May_18_1538,2-25_cond_decay_EYE-try,2021.2.3,168.12776993588744,
right,1.0,0.75,0,2,0,2,0,2,0,2,0,1,3,13,2,,,,,,,,,,,,,,,10s,1604.4305834509432,1605.4300446789712,1605.424023183994,None,1606.4238514178433,1612.7574725009035,1606.4238514178433,1612.7574725009035,1612.7574725009035,None,1612.7574725009035,None,space,0.3944311880040914,1612.7574725009035,None,6.329,1613.2855442038272,None,,,,,,,DEC005,001,2022_May_18_1538,2-25_cond_decay_EYE-try,2021.2.3,168.12776993588744,
right,1.0,0.75,0,2,0,2,0,2,0,2,0,1,4,14,9,,,,,,,,,,,,,,,10s,1614.3395100529306,1615.3395097688772,1615.3326010329183,None,1616.3334926757962,1620.3869702517986,1616.3334926757962,1620.3869702517986,1620.3869702517986,None,1620.3869702517986,None,space,0.3649355301167816,1620.3869702517986,None,4.0517,1620.890573036857,None,,,,,,,DEC005,001,2022_May_18_1538,2-25_cond_decay_EYE-try,2021.2.3,168.12776993588744,
left,1.0,0.75,1,2,0,2,0,2,0,2,0,1,5,15,1,,,,,,,,,,,,,,,10s,1621.9513289348688,1622.95135617489,1622.9454138439614,None,1623.944744334789,1633.6657643909566,1623.944744334789,1633.6657643909566,1633.6657643909566,None,1633.6657643909566,None,None,,1633.6657643909566,None,9.719,1634.7938097268343,None,,,,,,,DEC005,001,2022_May_18_1538,2-25_cond_decay_EYE-try,2021.2.3,168.12776993588744,
left,0.75,1.0,0,2,0,2,0,2,0,2,0,1,6,16,4,,,,,,,,,,,,,,,10s,1635.8426942389924,1636.8483595419675,1636.835360824829,None,1637.8358913047705,1639.0299934358336,1637.8358913047705,1639.0299934358336,1639.0299934358336,None,1639.0299934358336,None,space,0.5139215919189155,1639.0299934358336,None,1.194,1639.6784537148196,None,,,,,,,DEC005,001,2022_May_18_1538,2-25_cond_decay_EYE-try,2021.2.3,168.12776993588744,
left,0.75,1.0,0,2,0,2,0,2,0,2,0,1,7,17,3,,,,,,,,,,,,,,,10s,1640.7210405548103,1641.7205261557829,1641.7144786377903,1652.1501816019882,1642.7199969158974,1651.1583286388777,1642.7199969158974,1651.1583286388777,1651.152397542959,None,1651.152397542959,None,None,,1651.152397542959,None,8.4364,1652.2841587238945,None,,,,,,,DEC005,001,2022_May_18_1538,2-25_cond_decay_EYE-try,2021.2.3,168.12776993588744,
left,0.75,1.0,0,2,0,2,0,2,0,2,0,1,8,18,0,,,,,,,,,,,,,,,10s,1653.327355550835,1654.3268851907924,1654.3208715377841,None,1655.320365209831,1663.9389880408999,1655.320365209831,1663.9389880408999,1663.9389880408999,None,1663.9389880408999,None,space,0.5328966658562422,1663.9389880408999,None,8.6189,1664.6115490607917,None,,,,,,,DEC005,001,2022_May_18_1538,2-25_cond_decay_EYE-try,2021.2.3,168.12776993588744,
right,0.75,1.0,1,2,0,2,0,2,0,2,0,1,9,19,6,,,,,,,,,,,,,,,10s,1665.6600126409903,1666.659138539806,1666.65335967578,None,1667.6531746278051,1673.5461166708264,1667.6531746278051,1673.5461166708264,1673.5392431749497,None,1673.5392431749497,None,space,0.5006760430987924,1673.5392431749497,None,5.8859,1674.1748504398856,None,,,,,,,DEC005,001,2022_May_18_1538,2-25_cond_decay_EYE-try,2021.2.3,168.12776993588744,
,,,,2,0,2,0,2,0,2,0,,,,,,,,,,,,,,,,,,,,,,,,,,,,,,,,,,,,,,,,,,,,,DEC005,001,2022_May_18_1538,2-25_cond_decay_EYE-try,2021.2.3,168.12776993588744,
left,0.75,1.0,0,2,0,2,0,3,0,3,0,0,0,0,2,,,,,,,,,1675.061293609906,None,1675.061293609906,None,1675.061293609906,None,3s,1682.9985929119866,1683.9989348449744,1683.9862848208286,None,1684.9872912177816,1686.6894571979064,1684.9872912177816,1686.6894571979064,1686.6894571979064,None,1686.6894571979064,None,space,0.4064551598858088,1686.6894571979064,None,1.6977,1687.2293132168707,None,,,,,,,DEC005,001,2022_May_18_1538,2-25_cond_decay_EYE-try,2021.2.3,168.12776993588744,
right,1.0,0.75,0,2,0,2,0,3,0,3,0,0,1,1,6,,,,,,,,,,,,,,,3s,1688.2834731817711,1689.2830800989177,1689.2718876369763,None,1690.2719223678578,1692.4590212039184,1690.2719223678578,1692.4590212039184,1692.4590212039184,None,1692.4590212039184,None,space,0.36489624506793916,1692.4590212039184,None,2.1849,1692.9625806158874,None,,,,,,,DEC005,001,2022_May_18_1538,2-25_cond_decay_EYE-try,2021.2.3,168.12776993588744,
right,0.75,1.0,1,2,0,2,0,3,0,3,0,0,2,2,1,,,,,,,,,,,,,,,3s,1694.0112424618565,1695.0103702908382,1695.0042532188818,None,1696.0044312088285,1696.4890942098573,1696.0044312088285,1696.4890942098573,1696.4890942098573,None,1696.4890942098573,None,space,0.41483184788376093,1696.4890942098573,None,0.4853,1697.0408069437835,None,,,,,,,DEC005,001,2022_May_18_1538,2-25_cond_decay_EYE-try,2021.2.3,168.12776993588744,
left,0.75,1.0,0,2,0,2,0,3,0,3,0,0,3,3,0,,,,,,,,,,,,,,,3s,1698.1013591869269,1699.102144547971,1699.0957464089151,None,1700.09596727998,1701.5702211768366,1700.09596727998,1701.5702211768366,1701.5632829067763,None,1701.5632829067763,None,space,0.34864777186885476,1701.5632829067763,None,1.469,1702.047201218782,None,,,,,,,DEC005,001,2022_May_18_1538,2-25_cond_decay_EYE-try,2021.2.3,168.12776993588744,
left,0.75,1.0,0,2,0,2,0,3,0,3,0,0,4,4,4,,,,,,,,,,,,,,,3s,1703.0957867437974,1704.096151649952,1704.0899746729992,None,1705.0897943819873,1707.55696648499,1705.0897943819873,1707.55696648499,1707.5511346748099,None,1707.5511346748099,None,space,0.33680030796676874,1707.5511346748099,None,2.4629,1708.023215028923,None,,,,,,,DEC005,001,2022_May_18_1538,2-25_cond_decay_EYE-try,2021.2.3,168.12776993588744,
right,1.0,0.75,0,2,0,2,0,3,0,3,0,0,5,5,7,,,,,,,,,,,,,,,3s,1709.0709833719302,1710.0715606128797,1710.0646640169434,None,1711.0647820408922,1712.398371452,1711.0647820408922,1712.398371452,1712.398371452,None,1712.398371452,None,space,0.393546350998804,1712.398371452,None,1.3316,1712.9263711299282,None,,,,,,,DEC005,001,2022_May_18_1538,2-25_cond_decay_EYE-try,2021.2.3,168.12776993588744,
right,1.0,0.75,0,2,0,2,0,3,0,3,0,0,6,6,9,,,,,,,,,,,,,,,3s,1713.9747395319864,1714.9745300288778,1714.968247838784,None,1715.9685689657927,1716.9136069437955,1715.9685689657927,1716.9136069437955,1716.9136069437955,None,1716.9136069437955,None,space,0.35831115720793605,1716.9136069437955,None,0.9442,1717.4104675757699,None,,,,,,,DEC005,001,2022_May_18_1538,2-25_cond_decay_EYE-try,2021.2.3,168.12776993588744,
right,1.0,0.75,0,2,0,2,0,3,0,3,0,0,7,7,3,,,,,,,,,,,,,,,3s,1718.458759214962,1719.4586587538943,1719.4525192419533,None,1720.4523150969762,1721.5675844729412,1720.4523150969762,1721.5675844729412,1721.5675844729412,None,1721.5675844729412,None,None,,1721.5675844729412,None,1.1117,1722.6949906467926,None,,,,,,,DEC005,001,2022_May_18_1538,2-25_cond_decay_EYE-try,2021.2.3,168.12776993588744,
left,0.75,1.0,0,2,0,2,0,3,0,3,0,0,8,8,8,,,,,,,,,,,,,,,3s,1723.7502826538403,1724.7493047358003,1724.743420508923,None,1725.7439226158895,1728.2105563138612,1725.7439226158895,1728.2105563138612,1728.2105563138612,None,1728.2105563138612,None,space,0.2933742590248585,1728.2105563138612,None,2.4668,1728.6469078219961,None,,,,,,,DEC005,001,2022_May_18_1538,2-25_cond_decay_EYE-try,2021.2.3,168.12776993588744,
left,0.75,1.0,0,2,0,2,0,3,0,3,0,0,9,9,5,,,,,,,,,,,,,,,3s,1729.6896762428805,1730.6896089739166,1730.6833262878936,None,1731.6835658338387,1733.2887934199534,1731.6835658338387,1733.2887934199534,1733.2887934199534,None,1733.2887934199534,None,space,0.3911364800296724,1733.2887934199534,None,1.6025,1733.8167085738387,None,,,,,,,DEC005,001,2022_May_18_1538,2-25_cond_decay_EYE-try,2021.2.3,168.12776993588744,
left,0.75,1.0,0,2,0,2,0,3,0,3,0,1,0,10,5,,,,,,,,,,,,,,,3s,1734.8712743388023,1735.8705732969102,1735.864386090776,None,1736.8653490978759,1738.3988481899723,1736.8653490978759,1738.3988481899723,1738.393200572813,None,1738.393200572813,None,space,0.4307349110022187,1738.393200572813,None,1.5291,1738.9553976899479,None,,,,,,,DEC005,001,2022_May_18_1538,2-25_cond_decay_EYE-try,2021.2.3,168.12776993588744,
left,0.75,1.0,0,2,0,2,0,3,0,3,0,1,1,11,0,,,,,,,,,,,,,,,3s,1740.0106432728935,1741.0097160888836,1741.0038913639728,None,1742.004047907889,1743.8459306769073,1742.004047907889,1743.8459306769073,1743.8459306769073,None,1743.8459306769073,None,space,0.4019869538024068,1743.8459306769073,None,1.8407,1744.3857721788809,None,,,,,,,DEC005,001,2022_May_18_1538,2-25_cond_decay_EYE-try,2021.2.3,168.12776993588744,
right,0.75,1.0,1,2,0,2,0,3,0,3,0,1,2,12,1,,,,,,,,,,,,,,,3s,1745.446411974961,1746.4460989029612,1746.4341252869926,None,1747.4409301709384,1748.0413935079705,1747.4409301709384,1748.0413935079705,1748.0358380589169,None,1748.0358380589169,None,space,0.7240811069495976,1748.0358380589169,None,0.5997,1748.8890258348547,None,,,,,,,DEC005,001,2022_May_18_1538,2-25_cond_decay_EYE-try,2021.2.3,168.12776993588744,
left,0.75,1.0,0,2,0,2,0,3,0,3,0,1,3,13,8,,,,,,,,,,,,,,,3s,1749.9437349808868,1750.9438317460008,1750.9370089778677,None,1751.9377160959411,1753.3800668187905,1751.9377160959411,1753.3800668187905,1753.3800668187905,None,1753.3800668187905,None,space,0.27584873093292117,1753.3800668187905,None,1.4406,1753.791444213828,None,,,,,,,DEC005,001,2022_May_18_1538,2-25_cond_decay_EYE-try,2021.2.3,168.12776993588744,
right,1.0,0.75,0,2,0,2,0,3,0,3,0,1,4,14,7,,,,,,,,,,,,,,,3s,1754.8399716189597,1755.8402572569903,1755.8341592759825,None,1756.834206316853,1759.095017367974,1756.834206316853,1759.095017367974,1759.095017367974,None,1759.095017367974,None,space,0.3209109369199723,1759.095017367974,None,2.258,1759.5504128879402,None,,,,,,,DEC005,001,2022_May_18_1538,2-25_cond_decay_EYE-try,2021.2.3,168.12776993588744,
right,1.0,0.75,0,2,0,2,0,3,0,3,0,1,5,15,3,,,,,,,,,,,,,,,3s,1760.6044242028147,1761.6034537898377,1761.5976829009596,None,1762.5975073019508,1763.7684090468101,1762.5975073019508,1763.7684090468101,1763.7626875278074,None,1763.7626875278074,None,space,0.3892398129682988,1763.7626875278074,None,1.1666,1764.2885053339414,None,,,,,,,DEC005,001,2022_May_18_1538,2-25_cond_decay_EYE-try,2021.2.3,168.12776993588744,
right,1.0,0.75,0,2,0,2,0,3,0,3,0,1,6,16,9,,,,,,,,,,,,,,,3s,1765.3373377169482,1766.337035719771,1766.331161892973,None,1767.3315394639503,1770.1735676138196,1767.3315394639503,1770.1735676138196,1770.1735676138196,None,1770.1735676138196,None,space,0.346370215062052,1770.1735676138196,None,2.8415,1770.6587742799893,None,,,,,,,DEC005,001,2022_May_18_1538,2-25_cond_decay_EYE-try,2021.2.3,168.12776993588744,
left,1.0,0.75,1,2,0,2,0,3,0,3,0,1,7,17,2,,,,,,,,,,,,,,,3s,1771.7124270137865,1772.712333724834,1772.700871195877,None,1773.7007553000003,1775.4282499079127,1773.7007553000003,1775.4282499079127,1775.4282499079127,None,1775.4282499079127,None,space,0.5076712369918823,1775.4282499079127,None,1.7248,1776.063984640874,None,,,,,,,DEC005,001,2022_May_18_1538,2-25_cond_decay_EYE-try,2021.2.3,168.12776993588744,
