attn_cue,left_ob,right_ob,congruent,runs.thisRepN,runs.thisTrialN,runs.thisN,runs.thisIndex,blocks.thisRepN,blocks.thisTrialN,blocks.thisN,blocks.thisIndex,trials.thisRepN,trials.thisTrialN,trials.thisN,trials.thisIndex,welcome.started,welcome.stopped,text_2.started,text_2.stopped,init_key_resp.keys,init_key_resp.rt,init_key_resp.started,init_key_resp.stopped,text_3.started,text_3.stopped,text_4.started,text_4.stopped,text_5.started,text_5.stopped,block_num,texter.started,texter.stopped,cross.started,cross.stopped,left_star.started,left_star.stopped,right_star.started,right_star.stopped,left_2.started,left_2.stopped,right_2.started,right_2.stopped,key_resp.keys,key_resp.rt,key_resp.started,key_resp.stopped,Rand Tim,text.started,text.stopped,end.started,end.stopped,text_6.started,text_6.stopped,text_7.started,text_7.stopped,participant,session,date,expName,psychopyVersion,frameRate,
,,,,,,,,,,,,,,,,14.26971501018852,None,14.26971501018852,None,space,5.3001722460612655,14.26971501018852,None,,,,,,,,,,,,,,,,,,,,,,,,,,,,,,,,,002,001,2022_Mar_30_1521,2-25_cond_decay,2021.2.3,166.63046274489258,
left,1.0,0.75,1,0,0,0,0,0,0,0,0,0,0,0,8,,,,,,,,,19.60232693189755,None,19.60232693189755,None,19.60232693189755,None,5s,22.391123310197145,23.391812318004668,23.379741713870317,None,24.379713675007224,28.149679797235876,24.379713675007224,28.149679797235876,28.149679797235876,None,28.149679797235876,None,space,0.6522139399312437,28.149679797235876,None,3.7668,28.82648437609896,None,,,,,,,002,001,2022_Mar_30_1521,2-25_cond_decay,2021.2.3,166.63046274489258,
right,1.0,0.75,0,0,0,0,0,0,0,0,0,0,1,1,0,,,,,,,,,,,,,,,5s,29.827253377996385,30.828518013004214,30.816483030095696,None,31.815538323950022,36.743197018280625,31.815538323950022,36.743197018280625,36.743197018280625,None,36.743197018280625,None,space,0.3626348334364593,36.743197018280625,None,4.9248,37.117747590877116,None,,,,,,,002,001,2022_Mar_30_1521,2-25_cond_decay,2021.2.3,166.63046274489258,
right,0.75,1.0,1,0,0,0,0,0,0,0,0,0,2,2,9,,,,,,,,,,,,,,,5s,38.11925677489489,39.11896106088534,39.113290403969586,None,40.113198730163276,43.644439310301095,40.113198730163276,43.644439310301095,43.63911468395963,None,43.63911468395963,None,space,0.42678530514240265,43.63911468395963,None,3.5254,44.08296818425879,None,,,,,,,002,001,2022_Mar_30_1521,2-25_cond_decay,2021.2.3,166.63046274489258,
left,0.75,1.0,0,0,0,0,0,0,0,0,0,0,3,3,4,,,,,,,,,,,,,,,5s,45.08700809394941,46.08860968891531,46.082713147159666,None,47.08211460523307,48.26926549524069,47.08211460523307,48.26926549524069,48.26279416726902,None,48.26279416726902,None,space,0.3870725678279996,48.26279416726902,None,1.1781,48.66300290124491,None,,,,,,,002,001,2022_Mar_30_1521,2-25_cond_decay,2021.2.3,166.63046274489258,
right,1.0,0.75,0,0,0,0,0,0,0,0,0,0,4,4,3,,,,,,,,,,,,,,,5s,49.66959392512217,50.669997435994446,50.66429298790172,None,51.66397252306342,53.54851579898968,51.66397252306342,53.54851579898968,53.542029236909,None,53.542029236909,None,space,0.3158837133087218,53.542029236909,None,1.8751,53.8695387551561,None,,,,,,,002,001,2022_Mar_30_1521,2-25_cond_decay,2021.2.3,166.63046274489258,
left,0.75,1.0,0,0,0,0,0,0,0,0,0,0,5,5,2,,,,,,,,,,,,,,,5s,54.87502723094076,55.87677289918065,55.87001894693822,None,56.86992458906025,60.05673819221556,56.86992458906025,60.05673819221556,60.050353846047074,None,60.050353846047074,None,space,0.2635593470185995,60.050353846047074,None,3.1786,60.331202077213675,None,,,,,,,002,001,2022_Mar_30_1521,2-25_cond_decay,2021.2.3,166.63046274489258,
left,0.75,1.0,0,0,0,0,0,0,0,0,0,0,6,6,1,,,,,,,,,,,,,,,5s,61.330504320096225,62.33024497888982,62.32453937130049,None,63.32436027703807,64.35464450903237,63.32436027703807,64.35464450903237,64.35464450903237,None,64.35464450903237,None,space,0.287293900270015,64.35464450903237,None,1.0288,64.6621425980702,None,,,,,,,002,001,2022_Mar_30_1521,2-25_cond_decay,2021.2.3,166.63046274489258,
left,1.0,0.75,1,0,0,0,0,0,0,0,0,0,7,7,5,,,,,,,,,,,,,,,5s,65.6636316170916,66.66359957307577,66.65786171797663,None,67.65824679518119,70.02718668524176,67.65824679518119,70.02718668524176,70.02191735384986,None,70.02191735384986,None,space,0.39598303800448775,70.02191735384986,None,2.3656,70.43854433111846,None,,,,,,,002,001,2022_Mar_30_1521,2-25_cond_decay,2021.2.3,166.63046274489258,
right,1.0,0.75,0,0,0,0,0,0,0,0,0,0,8,8,7,,,,,,,,,,,,,,,5s,71.4441689630039,72.44542915513739,72.43942922819406,None,73.43962292419747,78.34828433813527,73.43962292419747,78.34828433813527,78.34174735704437,None,78.34174735704437,None,space,0.3080893699079752,78.34174735704437,None,4.8987,78.66306116199121,None,,,,,,,002,001,2022_Mar_30_1521,2-25_cond_decay,2021.2.3,166.63046274489258,
left,0.75,1.0,0,0,0,0,0,0,0,0,0,0,9,9,6,,,,,,,,,,,,,,,5s,79.66886607697234,80.67028650222346,80.66364412428811,None,81.66363811818883,82.427421992179,81.66363811818883,82.427421992179,82.427421992179,None,82.427421992179,None,space,0.4144725389778614,82.427421992179,None,0.763,82.85763870505616,None,,,,,,,002,001,2022_Mar_30_1521,2-25_cond_decay,2021.2.3,166.63046274489258,
left,0.75,1.0,0,0,0,0,0,0,0,0,0,1,0,10,1,,,,,,,,,,,,,,,5s,83.85754608409479,84.85803387314081,84.85137553885579,None,85.85115707619116,86.57892543124035,85.85115707619116,86.57892543124035,86.57892543124035,None,86.57892543124035,None,space,0.2789037493057549,86.57892543124035,None,0.7269,86.87584133911878,None,,,,,,,002,001,2022_Mar_30_1521,2-25_cond_decay,2021.2.3,166.63046274489258,
right,0.75,1.0,1,0,0,0,0,0,0,0,0,1,1,11,9,,,,,,,,,,,,,,,5s,87.88019673386589,88.88226342014968,88.87550390092656,None,89.8761876760982,93.48702199012041,89.8761876760982,93.48702199012041,93.48066542530432,None,93.48066542530432,None,space,0.3132521500810981,93.48066542530432,None,3.6012,93.81416725227609,None,,,,,,,002,001,2022_Mar_30_1521,2-25_cond_decay,2021.2.3,166.63046274489258,
right,1.0,0.75,0,0,0,0,0,0,0,0,0,1,2,12,7,,,,,,,,,,,,,,,5s,94.815491725225,95.81568131688982,95.80863311886787,None,96.80930998595431,100.67530702892691,96.80930998595431,100.67530702892691,100.66864442499354,None,100.66864442499354,None,space,0.34922962030395865,100.66864442499354,None,3.8578,101.03220122214407,None,,,,,,,002,001,2022_Mar_30_1521,2-25_cond_decay,2021.2.3,166.63046274489258,
right,1.0,0.75,0,0,0,0,0,0,0,0,0,1,3,13,0,,,,,,,,,,,,,,,5s,102.03352673025802,103.03283326793462,103.02714301925153,None,104.02670486923307,108.85080732218921,104.02670486923307,108.85080732218921,108.8442856259644,None,108.8442856259644,None,space,0.30162249598652124,108.8442856259644,None,4.8161,109.15938063617796,None,,,,,,,002,001,2022_Mar_30_1521,2-25_cond_decay,2021.2.3,166.63046274489258,
left,1.0,0.75,1,0,0,0,0,0,0,0,0,1,4,14,5,,,,,,,,,,,,,,,5s,110.1654524570331,111.16610884992406,111.16048618918285,None,112.16063046408817,116.59029051009566,112.16063046408817,116.59029051009566,116.5850454182364,None,116.5850454182364,None,space,0.33686353685334325,116.5850454182364,None,4.4282,116.93518361216411,None,,,,,,,002,001,2022_Mar_30_1521,2-25_cond_decay,2021.2.3,166.63046274489258,
left,0.75,1.0,0,0,0,0,0,0,0,0,0,1,5,15,4,,,,,,,,,,,,,,,5s,117.93603606987745,118.9355502310209,118.92987572494894,None,119.92953123524785,121.42110787797719,119.92953123524785,121.42110787797719,121.42110787797719,None,121.42110787797719,None,space,0.37280552787706256,121.42110787797719,None,1.4905,121.80712300725281,None,,,,,,,002,001,2022_Mar_30_1521,2-25_cond_decay,2021.2.3,166.63046274489258,
left,0.75,1.0,0,0,0,0,0,0,0,0,0,1,6,16,6,,,,,,,,,,,,,,,5s,122.80838522315025,123.80908313812688,123.80225558998063,None,124.80288966093212,128.17065219115466,124.80288966093212,128.17065219115466,128.16510883020237,None,128.16510883020237,None,space,0.30078944005072117,128.16510883020237,None,3.3599,128.4812767188996,None,,,,,,,002,001,2022_Mar_30_1521,2-25_cond_decay,2021.2.3,166.63046274489258,
left,0.75,1.0,0,0,0,0,0,0,0,0,0,1,7,17,2,,,,,,,,,,,,,,,5s,129.48145981598645,130.48110783705488,130.4755934062414,None,131.47488367790356,133.69290568027645,131.47488367790356,133.69290568027645,133.68647945392877,None,133.68647945392877,None,space,0.33943770034238696,133.68647945392877,None,2.2099,134.0374316922389,None,,,,,,,002,001,2022_Mar_30_1521,2-25_cond_decay,2021.2.3,166.63046274489258,
right,1.0,0.75,0,0,0,0,0,0,0,0,0,1,8,18,3,,,,,,,,,,,,,,,5s,135.04390896530822,136.0444876011461,136.03880227124318,None,137.03899404685944,137.24474863987416,137.03899404685944,137.24474863987416,137.24474863987416,None,137.24474863987416,None,None,,137.24474863987416,None,0.206,138.26129303313792,None,,,,,,,002,001,2022_Mar_30_1521,2-25_cond_decay,2021.2.3,166.63046274489258,
right,1.0,0.75,0,0,0,0,0,0,0,0,0,1,9,19,8,,,,,,,,,,,,,,,5s,139.2564087929204,140.25713958824053,140.24436110304669,None,141.24513510195538,142.77806580485776,141.24513510195538,142.77806580485776,142.77806580485776,None,142.77806580485776,None,space,0.6798396562226117,142.77806580485776,None,1.532,143.4799182121642,None,,,,,,,002,001,2022_Mar_30_1521,2-25_cond_decay,2021.2.3,166.63046274489258,
,,,,0,0,0,0,0,0,0,0,,,,,,,,,,,,,,,,,,,,,,,,,,,,,,,,,,,,,,,,,,,,,002,001,2022_Mar_30_1521,2-25_cond_decay,2021.2.3,166.63046274489258,
left,0.75,1.0,0,0,0,0,0,1,0,1,0,0,0,0,3,,,,,,,,,144.4916872791946,None,144.4916872791946,None,144.4916872791946,None,10s,154.41441092500463,155.41455047298223,155.40788922598585,None,156.40841246815398,162.61281486228108,156.40841246815398,162.61281486228108,162.6064352048561,None,162.6064352048561,None,space,0.28346786787733436,162.6064352048561,None,6.1962,162.9046224039048,None,,,,,,,002,001,2022_Mar_30_1521,2-25_cond_decay,2021.2.3,166.63046274489258,
right,1.0,0.75,0,0,0,0,0,1,0,1,0,0,1,1,8,,,,,,,,,,,,,,,10s,163.9096681671217,164.91063742991537,164.9049243722111,None,165.90484986500815,166.54786329017952,165.90484986500815,166.54786329017952,166.54786329017952,None,166.54786329017952,None,space,0.4059691592119634,166.54786329017952,None,0.6398,166.97187784407288,None,,,,,,,002,001,2022_Mar_30_1521,2-25_cond_decay,2021.2.3,166.63046274489258,
right,1.0,0.75,0,0,0,0,0,1,0,1,0,0,2,2,2,,,,,,,,,,,,,,,10s,167.97185980994254,168.9712215969339,168.96555548813194,None,169.9659744980745,174.95340885594487,169.9659744980745,174.95340885594487,174.95340885594487,None,174.95340885594487,None,space,0.3284342302940786,174.95340885594487,None,4.988,175.3039455441758,None,,,,,,,002,001,2022_Mar_30_1521,2-25_cond_decay,2021.2.3,166.63046274489258,
left,0.75,1.0,0,0,0,0,0,1,0,1,0,0,3,3,9,,,,,,,,,,,,,,,10s,176.31000153394416,177.310618059244,177.30491697695106,None,178.30494236806408,187.42583374725655,178.30494236806408,187.42583374725655,187.42583374725655,None,187.42583374725655,None,space,0.29607862792909145,187.42583374725655,None,9.1216,187.73361611925066,None,,,,,,,002,001,2022_Mar_30_1521,2-25_cond_decay,2021.2.3,166.63046274489258,
right,0.75,1.0,1,0,0,0,0,1,0,1,0,0,4,4,5,,,,,,,,,,,,,,,10s,188.73930359398946,189.7413395671174,189.73550745099783,None,190.73455936228856,199.91073213284835,190.73455936228856,199.91073213284835,199.91073213284835,None,199.91073213284835,None,space,0.44318937510252,199.91073213284835,None,9.1752,200.37630497198552,None,,,,,,,002,001,2022_Mar_30_1521,2-25_cond_decay,2021.2.3,166.63046274489258,
left,1.0,0.75,1,0,0,0,0,1,0,1,0,0,5,5,7,,,,,,,,,,,,,,,10s,201.38233500905335,202.3827681648545,202.37706468207762,None,203.3769689509645,204.52229684730992,203.3769689509645,204.52229684730992,204.51696801325306,205.51631530513987,204.51696801325306,205.51631530513987,None,,204.51696801325306,205.51631530513987,1.1408,205.53322284622118,None,,,,,,,002,001,2022_Mar_30_1521,2-25_cond_decay,2021.2.3,166.63046274489258,
left,0.75,1.0,0,0,0,0,0,1,0,1,0,0,6,6,6,,,,,,,,,,,,,,,10s,206.52894761692733,207.5289244260639,207.5222792471759,None,208.52225571405143,212.32285685185343,208.52225571405143,212.32285685185343,212.32285685185343,None,212.32285685185343,None,None,,212.32285685185343,None,3.7993,213.32688394002616,None,,,,,,,002,001,2022_Mar_30_1521,2-25_cond_decay,2021.2.3,166.63046274489258,
left,0.75,1.0,0,0,0,0,0,1,0,1,0,0,7,7,1,,,,,,,,,,,,,,,10s,214.32816849416122,215.3280848208815,215.32240960700437,None,216.32261989824474,224.02561550028622,216.32261989824474,224.02561550028622,224.02561550028622,None,224.02561550028622,None,space,0.3762303851544857,224.02561550028622,None,7.7035,224.42416880419478,None,,,,,,,002,001,2022_Mar_30_1521,2-25_cond_decay,2021.2.3,166.63046274489258,
right,1.0,0.75,0,0,0,0,0,1,0,1,0,0,8,8,4,,,,,,,,,,,,,,,10s,225.43047678517178,226.43187985103577,226.42490704217926,None,227.4251145971939,233.5159744261764,227.4251145971939,233.5159744261764,233.5159744261764,None,233.5159744261764,None,space,0.3098648898303509,233.5159744261764,None,6.0884,233.84342691721395,None,,,,,,,002,001,2022_Mar_30_1521,2-25_cond_decay,2021.2.3,166.63046274489258,
left,0.75,1.0,0,0,0,0,0,1,0,1,0,0,9,9,0,,,,,,,,,,,,,,,10s,234.84762160526589,235.84920358425006,235.84354816004634,None,236.84313606098294,241.28422001516446,236.84313606098294,241.28422001516446,241.27781197195873,None,241.27781197195873,None,space,0.36410994501784444,241.27781197195873,None,4.433,241.65430751023814,None,,,,,,,002,001,2022_Mar_30_1521,2-25_cond_decay,2021.2.3,166.63046274489258,
right,0.75,1.0,1,0,0,0,0,1,0,1,0,1,0,10,5,,,,,,,,,,,,,,,10s,242.65963801695034,243.66187867103145,243.65515430318192,None,244.6557518891059,248.83106229593977,244.6557518891059,248.83106229593977,248.83106229593977,None,248.83106229593977,None,space,0.5067902118898928,248.83106229593977,None,4.1733,249.3509216280654,None,,,,,,,002,001,2022_Mar_30_1521,2-25_cond_decay,2021.2.3,166.63046274489258,
left,0.75,1.0,0,0,0,0,0,1,0,1,0,1,1,11,0,,,,,,,,,,,,,,,10s,250.35663274023682,251.35843717725947,251.35179973905906,None,252.3520678449422,253.20024938229471,252.3520678449422,253.20024938229471,253.19369797501713,None,253.19369797501713,None,space,0.3762322310358286,253.19369797501713,None,0.8399,253.58163849404082,None,,,,,,,002,001,2022_Mar_30_1521,2-25_cond_decay,2021.2.3,166.63046274489258,
right,1.0,0.75,0,0,0,0,0,1,0,1,0,1,2,12,2,,,,,,,,,,,,,,,10s,254.58704105205834,255.5889980508946,255.58225058484823,None,256.5827760831453,261.44127551000565,256.5827760831453,261.44127551000565,261.4359877239913,None,261.4359877239913,None,space,0.3259453447535634,261.4359877239913,None,4.8508,261.775060584303,None,,,,,,,002,001,2022_Mar_30_1521,2-25_cond_decay,2021.2.3,166.63046274489258,
right,1.0,0.75,0,0,0,0,0,1,0,1,0,1,3,13,3,,,,,,,,,,,,,,,10s,262.77643969422206,263.7759722121991,263.7703268430196,None,264.77032590890303,269.8789053489454,264.77032590890303,269.8789053489454,269.8736041560769,None,269.8736041560769,None,space,0.3362855059094727,269.8736041560769,None,5.1044,270.2230672771111,None,,,,,,,002,001,2022_Mar_30_1521,2-25_cond_decay,2021.2.3,166.63046274489258,
left,1.0,0.75,1,0,0,0,0,1,0,1,0,1,4,14,7,,,,,,,,,,,,,,,10s,271.22955803526565,272.23033267911524,272.22470180504024,None,273.22439859015867,275.5515335369855,273.22439859015867,275.5515335369855,275.54627776611596,None,275.54627776611596,None,None,,275.54627776611596,None,2.3221,276.5560730691068,None,,,,,,,002,001,2022_Mar_30_1521,2-25_cond_decay,2021.2.3,166.63046274489258,
right,1.0,0.75,0,0,0,0,0,1,0,1,0,1,5,15,8,,,,,,,,,,,,,,,10s,277.55607421603054,278.5580481351353,278.55136028910056,None,279.5516618262045,284.59890798898414,279.5516618262045,284.59890798898414,284.5925114653073,None,284.5925114653073,None,space,0.36935885809361935,284.5925114653073,None,5.039,284.980191023089,None,,,,,,,002,001,2022_Mar_30_1521,2-25_cond_decay,2021.2.3,166.63046274489258,
left,0.75,1.0,0,0,0,0,0,1,0,1,0,1,6,16,1,,,,,,,,,,,,,,,10s,285.9808869101107,286.98175714397803,286.9762819581665,None,287.97539602126926,289.0239978050813,287.97539602126926,289.0239978050813,289.018621255178,None,289.018621255178,None,space,0.4633097806945443,289.018621255178,None,1.0446,289.49753302009776,None,,,,,,,002,001,2022_Mar_30_1521,2-25_cond_decay,2021.2.3,166.63046274489258,
left,0.75,1.0,0,0,0,0,0,1,0,1,0,1,7,17,9,,,,,,,,,,,,,,,10s,290.4970160401426,291.49665377428755,291.49082847405225,None,292.4911808152683,295.1763575063087,292.4911808152683,295.1763575063087,295.1763575063087,None,295.1763575063087,None,space,0.3135687541216612,295.1763575063087,None,2.6848,295.50180768826976,None,,,,,,,002,001,2022_Mar_30_1521,2-25_cond_decay,2021.2.3,166.63046274489258,
left,0.75,1.0,0,0,0,0,0,1,0,1,0,1,8,18,6,,,,,,,,,,,,,,,10s,296.5032533220947,297.50273971026763,297.49715889198706,None,298.49673657491803,302.52077190903947,298.49673657491803,302.52077190903947,302.5154720051214,None,302.5154720051214,None,space,0.35046740621328354,302.5154720051214,None,4.019,302.8776614111848,None,,,,,,,002,001,2022_Mar_30_1521,2-25_cond_decay,2021.2.3,166.63046274489258,
right,1.0,0.75,0,0,0,0,0,1,0,1,0,1,9,19,4,,,,,,,,,,,,,,,10s,303.8833935628645,304.8849957319908,304.87833068100736,None,305.87920030998066,314.6540439738892,305.87920030998066,314.6540439738892,314.6540439738892,None,314.6540439738892,None,space,0.3958797389641404,314.6540439738892,None,8.774,315.06672432413325,None,,,,,,,002,001,2022_Mar_30_1521,2-25_cond_decay,2021.2.3,166.63046274489258,
,,,,0,0,0,0,1,0,1,0,,,,,,,,,,,,,,,,,,,,,,,,,,,,,,,,,,,,,,,,,,,,,002,001,2022_Mar_30_1521,2-25_cond_decay,2021.2.3,166.63046274489258,
right,1.0,0.75,0,0,0,0,0,2,0,2,0,0,0,0,4,,,,,,,,,316.07677739998326,None,316.07677739998326,None,316.07677739998326,None,1s,325.31403745291755,326.31500221416354,326.3082192968577,None,327.308282981161,327.95754156820476,327.308282981161,327.95754156820476,327.95129093015566,None,327.95129093015566,None,space,0.3145719561725855,327.95129093015566,None,0.6435,328.27674291515723,None,,,,,,,002,001,2022_Mar_30_1521,2-25_cond_decay,2021.2.3,166.63046274489258,
left,0.75,1.0,0,0,0,0,0,2,0,2,0,0,1,1,0,,,,,,,,,,,,,,,1s,329.2832331461832,330.28401740221307,330.27835666015744,None,331.2784737679176,331.95721725793555,331.2784737679176,331.95721725793555,331.9515654249117,None,331.9515654249117,None,space,0.29029778204858303,331.9515654249117,None,0.6738,332.25331086292863,None,,,,,,,002,001,2022_Mar_30_1521,2-25_cond_decay,2021.2.3,166.63046274489258,
right,0.75,1.0,1,0,0,0,0,2,0,2,0,0,2,2,5,,,,,,,,,,,,,,,1s,333.2593039232306,334.26053711026907,334.2537101521157,None,335.2535174218938,335.87203358020633,335.2535174218938,335.87203358020633,335.87203358020633,None,335.87203358020633,None,space,0.32183906016871333,335.87203358020633,None,0.6185,336.2116306652315,None,,,,,,,002,001,2022_Mar_30_1521,2-25_cond_decay,2021.2.3,166.63046274489258,
right,1.0,0.75,0,0,0,0,0,2,0,2,0,0,3,3,8,,,,,,,,,,,,,,,1s,337.2116415379569,338.2113057281822,338.20563374320045,None,339.20545392809436,339.96333096921444,339.20545392809436,339.96333096921444,339.96333096921444,None,339.96333096921444,None,space,0.26259045023471117,339.96333096921444,None,0.7566,340.2420749072917,None,,,,,,,002,001,2022_Mar_30_1521,2-25_cond_decay,2021.2.3,166.63046274489258,
left,0.75,1.0,0,0,0,0,0,2,0,2,0,0,4,4,3,,,,,,,,,,,,,,,1s,341.24620676320046,342.2476066350937,342.24198472313583,None,343.2416892419569,343.75650111585855,343.2416892419569,343.75650111585855,343.75116942217574,None,343.75116942217574,None,space,0.2586977551691234,343.75116942217574,None,0.5121,344.0218555959873,None,,,,,,,002,001,2022_Mar_30_1521,2-25_cond_decay,2021.2.3,166.63046274489258,
right,1.0,0.75,0,0,0,0,0,2,0,2,0,0,5,5,9,,,,,,,,,,,,,,,1s,345.0288452799432,346.0299129812047,346.02315872209147,None,347.0232953741215,348.0110645070672,347.0232953741215,348.0110645070672,348.0057815280743,None,348.0057815280743,None,space,0.25209625996649265,348.0057815280743,None,0.984,348.27068287786096,None,,,,,,,002,001,2022_Mar_30_1521,2-25_cond_decay,2021.2.3,166.63046274489258,
right,1.0,0.75,0,0,0,0,0,2,0,2,0,0,6,6,6,,,,,,,,,,,,,,,1s,349.27178045688197,350.27229705406353,350.2656190171838,None,351.26630109688267,351.7070791022852,351.26630109688267,351.7070791022852,351.70055556995794,None,351.70055556995794,None,space,0.41337945219129324,351.70055556995794,None,0.4315,352.1256491621025,None,,,,,,,002,001,2022_Mar_30_1521,2-25_cond_decay,2021.2.3,166.63046274489258,
left,0.75,1.0,0,0,0,0,0,2,0,2,0,0,7,7,7,,,,,,,,,,,,,,,1s,353.1311462339945,354.1322087319568,354.126593361143,None,355.125988279935,355.66559050697833,355.125988279935,355.66559050697833,355.6602731952444,None,355.6602731952444,None,space,0.2616590950638056,355.6602731952444,None,0.5352,355.9385769860819,None,,,,,,,002,001,2022_Mar_30_1521,2-25_cond_decay,2021.2.3,166.63046274489258,
left,0.75,1.0,0,0,0,0,0,2,0,2,0,0,8,8,1,,,,,,,,,,,,,,,1s,356.93842491786927,357.9386693020351,357.9319277401082,None,358.93222505087033,359.48992589721456,358.93222505087033,359.48992589721456,359.48992589721456,None,359.48992589721456,None,space,0.25601343903690577,359.48992589721456,None,0.5572,359.7626445502974,None,,,,,,,002,001,2022_Mar_30_1521,2-25_cond_decay,2021.2.3,166.63046274489258,
right,1.0,0.75,0,0,0,0,0,2,0,2,0,0,9,9,2,,,,,,,,,,,,,,,1s,360.76714623486623,361.76850017299876,361.76296671805903,None,362.7623417288996,363.4169734441675,362.7623417288996,363.4169734441675,363.4169734441675,None,363.4169734441675,None,space,0.1849538702517748,363.4169734441675,None,0.6519,363.6163812689483,None,,,,,,,002,001,2022_Mar_30_1521,2-25_cond_decay,2021.2.3,166.63046274489258,
left,1.0,0.75,1,0,0,0,0,2,0,2,0,1,0,10,4,,,,,,,,,,,,,,,1s,364.6215228070505,365.6231050109491,365.6171143730171,None,366.6172913098708,367.3608911652118,366.6172913098708,367.3608911652118,367.35555284889415,None,367.35555284889415,None,space,0.198384297080338,367.35555284889415,None,0.7346,367.5671634860337,None,,,,,,,002,001,2022_Mar_30_1521,2-25_cond_decay,2021.2.3,166.63046274489258,
left,0.75,1.0,0,0,0,0,0,2,0,2,0,1,1,11,3,,,,,,,,,,,,,,,1s,368.5681915981695,369.56831844802946,369.56262085493654,None,370.5624936320819,371.30687924008816,370.5624936320819,371.30687924008816,371.3004491790198,None,371.3004491790198,None,space,0.23743927525356412,371.3004491790198,None,0.7354,371.5493921348825,None,,,,,,,002,001,2022_Mar_30_1521,2-25_cond_decay,2021.2.3,166.63046274489258,
left,0.75,1.0,0,0,0,0,0,2,0,2,0,1,2,12,1,,,,,,,,,,,,,,,1s,372.55007479712367,373.55016064085066,373.54451373405755,None,374.54414945608005,375.0354206948541,374.54414945608005,375.0354206948541,375.0354206948541,None,375.0354206948541,None,space,0.334508019965142,375.0354206948541,None,0.4914,375.38658686494455,None,,,,,,,002,001,2022_Mar_30_1521,2-25_cond_decay,2021.2.3,166.63046274489258,
right,0.75,1.0,1,0,0,0,0,2,0,2,0,1,3,13,5,,,,,,,,,,,,,,,1s,376.3920262949541,377.3930547311902,377.38633671496063,None,378.38715306529775,379.0050952900201,378.38715306529775,379.0050952900201,379.0050952900201,None,379.0050952900201,None,space,0.27678993716835976,379.0050952900201,None,0.6176,379.2947304761037,None,,,,,,,002,001,2022_Mar_30_1521,2-25_cond_decay,2021.2.3,166.63046274489258,
right,1.0,0.75,0,0,0,0,0,2,0,2,0,1,4,14,2,,,,,,,,,,,,,,,1s,380.2959862728603,381.2960130581632,381.2892741658725,None,382.2893754718825,382.950527000241,382.2893754718825,382.950527000241,382.950527000241,None,382.950527000241,None,space,0.2274021189659834,382.950527000241,None,0.6605,383.19126387126744,None,,,,,,,002,001,2022_Mar_30_1521,2-25_cond_decay,2021.2.3,166.63046274489258,
right,1.0,0.75,0,0,0,0,0,2,0,2,0,1,5,15,8,,,,,,,,,,,,,,,1s,384.1929969242774,385.1923929778859,385.1868434511125,None,386.18650016607717,386.5982592771761,386.18650016607717,386.5982592771761,386.5929480851628,None,386.5929480851628,None,space,0.3930054549127817,386.5929480851628,None,0.4096,386.9975117291324,None,,,,,,,002,001,2022_Mar_30_1521,2-25_cond_decay,2021.2.3,166.63046274489258,
right,1.0,0.75,0,0,0,0,0,2,0,2,0,1,6,16,9,,,,,,,,,,,,,,,1s,387.9990792660974,388.99861866189167,388.9929274911992,None,389.99288810929283,390.6103544170037,389.99288810929283,390.6103544170037,390.6103544170037,None,390.6103544170037,None,space,0.24758392898365855,390.6103544170037,None,0.6171,390.86985253728926,None,,,,,,,002,001,2022_Mar_30_1521,2-25_cond_decay,2021.2.3,166.63046274489258,
left,0.75,1.0,0,0,0,0,0,2,0,2,0,1,7,17,7,,,,,,,,,,,,,,,1s,391.87662149220705,392.87722362484783,392.87168423784897,None,393.87110735010356,394.17266804212704,393.87110735010356,394.17266804212704,394.16738014901057,None,394.16738014901057,None,space,0.30655383598059416,394.16738014901057,None,0.2934,394.48813145328313,None,,,,,,,002,001,2022_Mar_30_1521,2-25_cond_decay,2021.2.3,166.63046274489258,
right,1.0,0.75,0,0,0,0,0,2,0,2,0,1,8,18,6,,,,,,,,,,,,,,,1s,395.49378221295774,396.49596356926486,396.48924486292526,None,397.4893559119664,397.7245344892144,397.4893559119664,397.7245344892144,397.71807885728776,None,397.71807885728776,None,space,0.35585551895201206,397.71807885728776,None,0.2264,398.0939993192442,None,,,,,,,002,001,2022_Mar_30_1521,2-25_cond_decay,2021.2.3,166.63046274489258,
left,0.75,1.0,0,0,0,0,0,2,0,2,0,1,9,19,0,,,,,,,,,,,,,,,1s,399.10019723605365,400.10217429324985,400.0953932008706,None,401.0952432611957,401.75637290626764,401.0952432611957,401.75637290626764,401.75637290626764,None,401.75637290626764,None,space,0.2375603117980063,401.75637290626764,None,0.6612,402.0106877912767,None,,,,,,,002,001,2022_Mar_30_1521,2-25_cond_decay,2021.2.3,166.63046274489258,
,,,,0,0,0,0,2,0,2,0,,,,,,,,,,,,,,,,,,,,,,,,,,,,,,,,,,,,,,,,,,,,,002,001,2022_Mar_30_1521,2-25_cond_decay,2021.2.3,166.63046274489258,
left,0.75,1.0,0,0,0,0,0,3,0,3,0,0,0,0,0,,,,,,,,,403.0209744628519,None,403.0209744628519,None,403.0209744628519,None,3s,408.14853051817045,409.1496473872103,409.138117109891,None,410.1374327801168,411.50148563599214,410.1374327801168,411.50148563599214,411.50148563599214,None,411.50148563599214,None,space,0.33244430599734187,411.50148563599214,None,1.3641,411.8454149379395,None,,,,,,,002,001,2022_Mar_30_1521,2-25_cond_decay,2021.2.3,166.63046274489258,
left,0.75,1.0,0,0,0,0,0,3,0,3,0,0,1,1,6,,,,,,,,,,,,,,,3s,412.8466845001094,413.84727912629023,413.84051900729537,None,414.8404656210914,417.6584490099922,414.8404656210914,417.6584490099922,417.6584490099922,None,417.6584490099922,None,space,0.3434931910596788,417.6584490099922,None,2.8157,418.0150342071429,None,,,,,,,002,001,2022_Mar_30_1521,2-25_cond_decay,2021.2.3,166.63046274489258,
right,1.0,0.75,0,0,0,0,0,3,0,3,0,0,2,2,4,,,,,,,,,,,,,,,3s,419.0211408091709,420.0228822398931,420.0160260661505,None,421.0161992139183,421.8648828789592,421.0161992139183,421.8648828789592,421.8648828789592,None,421.8648828789592,None,None,,421.8648828789592,None,0.8465,422.875346316956,None,,,,,,,002,001,2022_Mar_30_1521,2-25_cond_decay,2021.2.3,166.63046274489258,
left,0.75,1.0,0,0,0,0,0,3,0,3,0,0,3,3,1,,,,,,,,,,,,,,,3s,423.87537860125303,424.8774210861884,424.87057277187705,None,425.8643330601044,426.894913893193,425.8643330601044,426.894913893193,426.894913893193,None,426.894913893193,None,space,0.3390338462777436,426.894913893193,None,1.027,427.25137450825423,None,,,,,,,002,001,2022_Mar_30_1521,2-25_cond_decay,2021.2.3,166.63046274489258,
right,0.75,1.0,1,0,0,0,0,3,0,3,0,0,4,4,7,,,,,,,,,,,,,,,3s,428.25189142115414,429.25215957686305,429.2464085370302,None,430.24631976429373,432.94392348686233,430.24631976429373,432.94392348686233,432.94392348686233,None,432.94392348686233,None,space,0.3380252462811768,432.94392348686233,None,2.695,433.29370743222535,None,,,,,,,002,001,2022_Mar_30_1521,2-25_cond_decay,2021.2.3,166.63046274489258,
right,1.0,0.75,0,0,0,0,0,3,0,3,0,0,5,5,3,,,,,,,,,,,,,,,3s,434.2947509540245,435.2953369440511,435.28850895911455,None,436.2888360861689,437.5126807531342,436.2888360861689,437.5126807531342,437.5061719249934,None,437.5061719249934,None,space,0.3597089000977576,437.5061719249934,None,1.2131,437.887754261028,None,,,,,,,002,001,2022_Mar_30_1521,2-25_cond_decay,2021.2.3,166.63046274489258,
left,1.0,0.75,1,0,0,0,0,3,0,3,0,0,6,6,2,,,,,,,,,,,,,,,3s,438.8937980681658,439.8945395280607,439.888867569156,None,440.88858611602336,442.626924646087,440.88858611602336,442.626924646087,442.62054209411144,None,442.62054209411144,None,space,0.36533477110788226,442.62054209411144,None,1.7302,443.00408114725724,None,,,,,,,002,001,2022_Mar_30_1521,2-25_cond_decay,2021.2.3,166.63046274489258,
right,1.0,0.75,0,0,0,0,0,3,0,3,0,0,7,7,5,,,,,,,,,,,,,,,3s,444.00917916884646,445.0102564240806,445.0034963139333,None,446.0042770020664,447.2707070191391,446.0042770020664,447.2707070191391,447.2707070191391,None,447.2707070191391,None,space,0.3312524789944291,447.2707070191391,None,1.2657,447.61430390086025,None,,,,,,,002,001,2022_Mar_30_1521,2-25_cond_decay,2021.2.3,166.63046274489258,
left,0.75,1.0,0,0,0,0,0,3,0,3,0,0,8,8,9,,,,,,,,,,,,,,,3s,448.62043594708666,449.62161786993966,449.61596078425646,None,450.61593446228653,451.45196778001264,450.61593446228653,451.45196778001264,451.44662837311625,None,451.44662837311625,None,space,0.34731104504317045,451.44662837311625,None,0.8334,451.81431380007416,None,,,,,,,002,001,2022_Mar_30_1521,2-25_cond_decay,2021.2.3,166.63046274489258,
left,0.75,1.0,0,0,0,0,0,3,0,3,0,0,9,9,8,,,,,,,,,,,,,,,3s,452.8155003860593,453.8158253640868,453.8103308249265,None,454.8094457499683,456.09485163213685,454.8094457499683,456.09485163213685,456.09485163213685,None,456.09485163213685,None,space,0.23503930633887649,456.09485163213685,None,1.2839,456.3416654802859,None,,,,,,,002,001,2022_Mar_30_1521,2-25_cond_decay,2021.2.3,166.63046274489258,
right,1.0,0.75,0,0,0,0,0,3,0,3,0,1,0,10,3,,,,,,,,,,,,,,,3s,457.34827725589275,458.34933631820604,458.3427047431469,None,459.3431213940494,459.579112815205,459.3431213940494,459.579112815205,459.5727454102598,None,459.5727454102598,None,None,,459.5727454102598,None,0.226,460.58406071923673,None,,,,,,,002,001,2022_Mar_30_1521,2-25_cond_decay,2021.2.3,166.63046274489258,
left,0.75,1.0,0,0,0,0,0,3,0,3,0,1,1,11,8,,,,,,,,,,,,,,,3s,461.5844903802499,462.58519529085606,462.57966771908104,None,463.5799377481453,465.70639232499525,463.5799377481453,465.70639232499525,465.70106751518324,None,465.70106751518324,None,space,0.33280072873458266,465.70106751518324,None,2.125,466.05636108107865,None,,,,,,,002,001,2022_Mar_30_1521,2-25_cond_decay,2021.2.3,166.63046274489258,
left,0.75,1.0,0,0,0,0,0,3,0,3,0,1,2,12,9,,,,,,,,,,,,,,,3s,467.0581432678737,468.0580436149612,468.05241101421416,None,469.05241411784664,471.9910334702581,469.05241411784664,471.9910334702581,471.9910334702581,None,471.9910334702581,None,space,0.3789182538166642,471.9910334702581,None,2.9398,472.38441517204046,None,,,,,,,002,001,2022_Mar_30_1521,2-25_cond_decay,2021.2.3,166.63046274489258,
left,1.0,0.75,1,0,0,0,0,3,0,3,0,1,3,13,2,,,,,,,,,,,,,,,3s,473.38530072104186,474.3850518190302,474.37941226223484,None,475.37906799605116,477.906146211084,475.37906799605116,477.906146211084,477.906146211084,None,477.906146211084,None,space,0.495798344258219,477.906146211084,None,2.5266,478.4141614502296,None,,,,,,,002,001,2022_Mar_30_1521,2-25_cond_decay,2021.2.3,166.63046274489258,
left,0.75,1.0,0,0,0,0,0,3,0,3,0,1,4,14,6,,,,,,,,,,,,,,,3s,479.41569358622655,480.4153248532675,480.40959660196677,None,481.4091405221261,482.51235254528,481.4091405221261,482.51235254528,482.51235254528,None,482.51235254528,None,space,0.417546465061605,482.51235254528,None,1.1035,482.9415083141066,None,,,,,,,002,001,2022_Mar_30_1521,2-25_cond_decay,2021.2.3,166.63046274489258,
right,1.0,0.75,0,0,0,0,0,3,0,3,0,1,5,15,0,,,,,,,,,,,,,,,3s,483.94759317627177,484.9492016839795,484.9423529552296,None,485.94296591030434,486.4274859572761,485.94296591030434,486.4274859572761,486.4274859572761,None,486.4274859572761,None,space,0.4864558447152376,486.4274859572761,None,0.4821,486.9306448539719,None,,,,,,,002,001,2022_Mar_30_1521,2-25_cond_decay,2021.2.3,166.63046274489258,
right,1.0,0.75,0,0,0,0,0,3,0,3,0,1,6,16,4,,,,,,,,,,,,,,,3s,487.93053512321785,488.9302752399817,488.92460837215185,None,489.9242321061902,492.06969859916717,489.9242321061902,492.06969859916717,492.06969859916717,None,492.06969859916717,None,space,0.4122518068179488,492.06969859916717,None,2.1442,492.49331184802577,None,,,,,,,002,001,2022_Mar_30_1521,2-25_cond_decay,2021.2.3,166.63046274489258,
right,0.75,1.0,1,0,0,0,0,3,0,3,0,1,7,17,7,,,,,,,,,,,,,,,3s,493.49368455586955,494.4939018250443,494.48788209818304,None,495.4884306550957,495.7058171899989,495.4884306550957,495.7058171899989,495.7005092143081,None,495.7005092143081,None,space,0.46144858794286847,495.7005092143081,None,0.2137,496.1788002019748,None,,,,,,,002,001,2022_Mar_30_1521,2-25_cond_decay,2021.2.3,166.63046274489258,
right,1.0,0.75,0,0,0,0,0,3,0,3,0,1,8,18,5,,,,,,,,,,,,,,,3s,497.1795159471221,498.17866749316454,498.1730989962816,None,499.17314402014017,500.07020136527717,499.17314402014017,500.07020136527717,500.07020136527717,None,500.07020136527717,None,None,,500.07020136527717,None,0.8955,501.08056532684714,None,,,,,,,002,001,2022_Mar_30_1521,2-25_cond_decay,2021.2.3,166.63046274489258,
left,0.75,1.0,0,0,0,0,0,3,0,3,0,1,9,19,1,,,,,,,,,,,,,,,3s,502.08079348830506,503.08161538187414,503.07590973423794,None,504.0760824298486,505.5171323348768,504.0760824298486,505.5171323348768,505.51045389520004,None,505.51045389520004,None,space,0.3074924903921783,505.51045389520004,None,1.4339,505.83811957621947,None,,,,,,,002,001,2022_Mar_30_1521,2-25_cond_decay,2021.2.3,166.63046274489258,
,,,,0,0,0,0,3,0,3,0,,,,,,,,,,,,,,,,,,,,,,,,,,,,,,,,,,,,,,,,,,,,,002,001,2022_Mar_30_1521,2-25_cond_decay,2021.2.3,166.63046274489258,
,,,,0,0,0,0,,,,,,,,,,,,,,,,,,,,,,,,,,,,,,,,,,,,,,,,,,,506.8504425319843,None,506.8504425319843,None,506.8504425319843,None,002,001,2022_Mar_30_1521,2-25_cond_decay,2021.2.3,166.63046274489258,
left,0.75,1.0,0,1,0,1,0,0,0,0,0,0,0,0,1,,,,,,,,,511.84586446592584,None,511.84586446592584,None,511.84586446592584,None,5s,529.7420979659073,530.7418146310374,530.729837898165,None,531.7300171651877,532.8148127039894,531.7300171651877,532.8148127039894,532.8148127039894,None,532.8148127039894,None,space,0.2511405320838094,532.8148127039894,None,1.0853,533.0863302708603,None,,,,,,,002,001,2022_Mar_30_1521,2-25_cond_decay,2021.2.3,166.63046274489258,
right,1.0,0.75,0,1,0,1,0,0,0,0,0,0,1,1,3,,,,,,,,,,,,,,,5s,534.0927257132716,535.0938615961932,535.0872129281051,None,536.087876685895,540.111499813851,536.087876685895,540.111499813851,540.111499813851,None,540.111499813851,None,space,0.29845845606178045,540.111499813851,None,4.0199,540.4312094468623,None,,,,,,,002,001,2022_Mar_30_1521,2-25_cond_decay,2021.2.3,166.63046274489258,
left,0.75,1.0,0,1,0,1,0,0,0,0,0,0,2,2,8,,,,,,,,,,,,,,,5s,541.437573869247,542.4388632089831,542.4329107492231,None,543.4332200088538,546.0613886890933,543.4332200088538,546.0613886890933,546.0560354022309,None,546.0560354022309,None,space,0.39393056835979223,546.0560354022309,None,2.6199,546.4615894090384,None,,,,,,,002,001,2022_Mar_30_1521,2-25_cond_decay,2021.2.3,166.63046274489258,
left,0.75,1.0,0,1,0,1,0,0,0,0,0,0,3,3,9,,,,,,,,,,,,,,,5s,547.4625773001462,548.4626720952801,548.4569946699776,None,549.4574084440246,552.673933767248,549.4574084440246,552.673933767248,552.6674226908945,None,552.6674226908945,None,space,0.35854252288118005,552.6674226908945,None,3.208,553.0372177981772,None,,,,,,,002,001,2022_Mar_30_1521,2-25_cond_decay,2021.2.3,166.63046274489258,
left,1.0,0.75,1,1,0,1,0,0,0,0,0,0,4,4,7,,,,,,,,,,,,,,,5s,554.0382029111497,555.038291064091,555.0324770798907,None,556.0323648410849,556.9237729180604,556.0323648410849,556.9237729180604,556.9237729180604,None,556.9237729180604,None,space,0.9421816891990602,556.9237729180604,None,0.8913,557.8801072239876,None,,,,,,,002,001,2022_Mar_30_1521,2-25_cond_decay,2021.2.3,166.63046274489258,
left,0.75,1.0,0,1,0,1,0,0,0,0,0,0,5,5,4,,,,,,,,,,,,,,,5s,558.8811615942977,559.88069675304,559.8749579288997,None,560.874812843278,561.1825001752004,560.874812843278,561.1825001752004,561.1762228212319,None,561.1762228212319,None,space,0.5377356670796871,561.1762228212319,None,0.2993,561.7283839150332,None,,,,,,,002,001,2022_Mar_30_1521,2-25_cond_decay,2021.2.3,166.63046274489258,
right,0.75,1.0,1,1,0,1,0,0,0,0,0,0,6,6,6,,,,,,,,,,,,,,,5s,562.7345319511369,563.7351654251106,563.7294887811877,None,564.7295958390459,566.5358652798459,564.7295958390459,566.5358652798459,566.5358652798459,None,566.5358652798459,None,space,0.4260931611061096,566.5358652798459,None,1.8041,566.9784175879322,None,,,,,,,002,001,2022_Mar_30_1521,2-25_cond_decay,2021.2.3,166.63046274489258,
right,1.0,0.75,0,1,0,1,0,0,0,0,0,0,7,7,2,,,,,,,,,,,,,,,5s,567.9776242789812,568.9781580381095,568.971473691985,None,569.9721291009337,573.8805834320374,569.9721291009337,573.8805834320374,573.8805834320374,None,573.8805834320374,None,None,,573.8805834320374,None,3.9093,574.8919092509896,None,,,,,,,002,001,2022_Mar_30_1521,2-25_cond_decay,2021.2.3,166.63046274489258,
left,0.75,1.0,0,1,0,1,0,0,0,0,0,0,8,8,0,,,,,,,,,,,,,,,5s,575.8918644990772,576.892782586161,576.8870638669468,None,577.8871996412054,579.8312924499623,577.8871996412054,579.8312924499623,579.824795990251,None,579.824795990251,None,space,0.31316506024450064,579.824795990251,None,1.9357,580.1598617359996,None,,,,,,,002,001,2022_Mar_30_1521,2-25_cond_decay,2021.2.3,166.63046274489258,
right,1.0,0.75,0,1,0,1,0,0,0,0,0,0,9,9,5,,,,,,,,,,,,,,,5s,581.1644482403062,582.1652076751925,582.1595148411579,None,583.1597977299243,585.9822382079437,583.1597977299243,585.9822382079437,585.9759068870917,None,585.9759068870917,None,space,0.17005142429843545,585.9759068870917,None,2.8133,586.1579273152165,None,,,,,,,002,001,2022_Mar_30_1521,2-25_cond_decay,2021.2.3,166.63046274489258,
right,1.0,0.75,0,1,0,1,0,0,0,0,0,1,0,10,3,,,,,,,,,,,,,,,5s,587.1597892618738,588.1597190489992,588.1529913479462,None,589.1530420552008,592.7588267400861,589.1530420552008,592.7588267400861,592.7535044662654,None,592.7535044662654,None,space,0.3044534861110151,592.7535044662654,None,3.6031,593.074624306988,None,,,,,,,002,001,2022_Mar_30_1521,2-25_cond_decay,2021.2.3,166.63046274489258,
left,0.75,1.0,0,1,0,1,0,0,0,0,0,1,1,11,9,,,,,,,,,,,,,,,5s,594.079352368135,595.0808095829561,595.0741194379516,None,596.0747650382109,599.236671525985,596.0747650382109,599.236671525985,599.2304096911103,None,599.2304096911103,None,space,0.2835432440042496,599.2304096911103,None,3.1545,599.5279999962077,None,,,,,,,002,001,2022_Mar_30_1521,2-25_cond_decay,2021.2.3,166.63046274489258,
right,1.0,0.75,0,1,0,1,0,0,0,0,0,1,2,12,2,,,,,,,,,,,,,,,5s,600.534101379104,601.535032032989,601.5293016429059,None,602.5286175431684,603.7587742288597,602.5286175431684,603.7587742288597,603.752249032259,None,603.752249032259,None,space,0.3937169727869332,603.752249032259,None,1.221,604.1577682341449,None,,,,,,,002,001,2022_Mar_30_1521,2-25_cond_decay,2021.2.3,166.63046274489258,
left,0.75,1.0,0,1,0,1,0,0,0,0,0,1,3,13,0,,,,,,,,,,,,,,,5s,605.1644395501353,606.1654610382393,606.1588337891735,None,607.1587861492299,611.618394961115,607.1587861492299,611.618394961115,611.6119208349846,None,611.6119208349846,None,space,0.34198635909706354,611.6119208349846,None,4.4511,611.9716492271982,None,,,,,,,002,001,2022_Mar_30_1521,2-25_cond_decay,2021.2.3,166.63046274489258,
right,1.0,0.75,0,1,0,1,0,0,0,0,0,1,4,14,5,,,,,,,,,,,,,,,5s,612.9756657918915,613.9767552530393,613.9710004329681,None,614.9713604990393,619.8555102460086,614.9713604990393,619.8555102460086,619.8501934320666,None,619.8501934320666,None,space,0.4077807068824768,619.8501934320666,None,4.8792,620.2741690701805,None,,,,,,,002,001,2022_Mar_30_1521,2-25_cond_decay,2021.2.3,166.63046274489258,
left,0.75,1.0,0,1,0,1,0,0,0,0,0,1,5,15,4,,,,,,,,,,,,,,,5s,621.2784864478745,622.2801155080087,622.2745273979381,None,623.2735775508918,625.2259038449265,623.2735775508918,625.2259038449265,625.2259038449265,None,625.2259038449265,None,space,0.4560880050994456,625.2259038449265,None,1.9528,625.6986602232791,None,,,,,,,002,001,2022_Mar_30_1521,2-25_cond_decay,2021.2.3,166.63046274489258,
right,1.0,0.75,0,1,0,1,0,0,0,0,0,1,6,16,1,,,,,,,,,,,,,,,5s,626.7025893400423,627.7042188392952,627.6983216349036,None,628.6977631631307,632.5222608190961,628.6977631631307,632.5222608190961,632.5222608190961,None,632.5222608190961,None,space,0.3276371802203357,632.5222608190961,None,3.8208,632.8683254672214,None,,,,,,,002,001,2022_Mar_30_1521,2-25_cond_decay,2021.2.3,166.63046274489258,
left,1.0,0.75,1,1,0,1,0,0,0,0,0,1,7,17,7,,,,,,,,,,,,,,,5s,633.8724554469809,634.8734142328613,634.8677186481655,None,635.8678521239199,638.5753970588557,635.8678521239199,638.5753970588557,638.5691482289694,None,638.5691482289694,None,space,0.4888272196985781,638.5691482289694,None,2.7013,639.0740505042486,None,,,,,,,002,001,2022_Mar_30_1521,2-25_cond_decay,2021.2.3,166.63046274489258,
left,0.75,1.0,0,1,0,1,0,0,0,0,0,1,8,18,8,,,,,,,,,,,,,,,5s,640.073444226291,641.0735352700576,641.0678708809428,None,642.0672871852294,645.0616470901296,642.0672871852294,645.0616470901296,645.0616470901296,None,645.0616470901296,None,space,0.3882576720789075,645.0616470901296,None,2.9946,645.4609015020542,None,,,,,,,002,001,2022_Mar_30_1521,2-25_cond_decay,2021.2.3,166.63046274489258,
right,0.75,1.0,1,1,0,1,0,0,0,0,0,1,9,19,6,,,,,,,,,,,,,,,5s,646.4658682532609,647.468087639194,647.4613027549349,None,648.461699411273,648.673434945289,648.461699411273,648.673434945289,648.673434945289,None,648.673434945289,None,space,0.8645306560210884,648.673434945289,None,0.2089,649.5511512402445,None,,,,,,,002,001,2022_Mar_30_1521,2-25_cond_decay,2021.2.3,166.63046274489258,
,,,,1,0,1,0,0,0,0,0,,,,,,,,,,,,,,,,,,,,,,,,,,,,,,,,,,,,,,,,,,,,,002,001,2022_Mar_30_1521,2-25_cond_decay,2021.2.3,166.63046274489258,
left,1.0,0.75,1,1,0,1,0,1,0,1,0,0,0,0,8,,,,,,,,,650.5585168511607,None,650.5585168511607,None,650.5585168511607,None,1s,653.2719174330123,654.2739304699935,654.261158447247,None,655.2610463802703,655.5342421340756,655.2610463802703,655.5342421340756,655.5342421340756,None,655.5342421340756,None,space,0.8677065977826715,655.5342421340756,None,0.2699,656.4237531218678,None,,,,,,,002,001,2022_Mar_30_1521,2-25_cond_decay,2021.2.3,166.63046274489258,
left,1.0,0.75,1,1,0,1,0,1,0,1,0,0,1,1,3,,,,,,,,,,,,,,,1s,657.4248126782477,658.4246308412403,658.4188783289865,None,659.4187503610738,659.6435799440369,659.4187503610738,659.6435799440369,659.6435799440369,None,659.6435799440369,None,space,0.8224059650674462,659.6435799440369,None,0.2227,660.477812631987,None,,,,,,,002,001,2022_Mar_30_1521,2-25_cond_decay,2021.2.3,166.63046274489258,
right,0.75,1.0,1,1,0,1,0,1,0,1,0,0,2,2,9,,,,,,,,,,,,,,,1s,661.4841333841905,662.486027834937,662.4792605731636,None,663.4796042102389,664.4488023100421,663.4796042102389,664.4488023100421,664.4488023100421,None,664.4488023100421,None,space,0.24117495911195874,664.4488023100421,None,0.9691,664.7027603602037,None,,,,,,,002,001,2022_Mar_30_1521,2-25_cond_decay,2021.2.3,166.63046274489258,
right,1.0,0.75,0,1,0,1,0,1,0,1,0,0,3,3,1,,,,,,,,,,,,,,,1s,665.7033151239157,666.7035738001578,666.6978861941025,None,667.6974944500253,668.0609461162239,667.6974944500253,668.0609461162239,668.0556538351811,None,668.0556538351811,None,space,0.38626844994723797,668.0556538351811,None,0.3615,668.4537321482785,None,,,,,,,002,001,2022_Mar_30_1521,2-25_cond_decay,2021.2.3,166.63046274489258,
left,0.75,1.0,0,1,0,1,0,1,0,1,0,0,4,4,0,,,,,,,,,,,,,,,1s,669.4606224629097,670.4615052952431,670.4547709231265,None,671.4552557421848,672.2052681432106,671.4552557421848,672.2052681432106,672.1996614988893,None,672.1996614988893,None,space,0.26631878316402435,672.1996614988893,None,0.7426,672.4778007832356,None,,,,,,,002,001,2022_Mar_30_1521,2-25_cond_decay,2021.2.3,166.63046274489258,
right,1.0,0.75,0,1,0,1,0,1,0,1,0,0,5,5,6,,,,,,,,,,,,,,,1s,673.4846230419353,674.4850499671884,674.4793121279217,None,675.4791444689035,676.0050839972682,675.4791444689035,676.0050839972682,675.9996999399737,None,675.9996999399737,None,space,0.33827831130474806,675.9996999399737,None,0.5175,676.3507069181651,None,,,,,,,002,001,2022_Mar_30_1521,2-25_cond_decay,2021.2.3,166.63046274489258,
left,0.75,1.0,0,1,0,1,0,1,0,1,0,0,6,6,2,,,,,,,,,,,,,,,1s,677.3571694619022,678.3578373119235,678.3522503068671,None,679.3525489992462,679.7629757430404,679.3525489992462,679.7629757430404,679.7565345182084,None,679.7565345182084,None,space,0.3653624909929931,679.7565345182084,None,0.4014,680.133004761301,None,,,,,,,002,001,2022_Mar_30_1521,2-25_cond_decay,2021.2.3,166.63046274489258,
left,0.75,1.0,0,1,0,1,0,1,0,1,0,0,7,7,4,,,,,,,,,,,,,,,1s,681.1341019971296,682.1341570112854,682.1275295931846,None,683.1273626671173,683.8433586340398,683.1273626671173,683.8433586340398,683.835960811004,None,683.835960811004,None,space,0.35801901388913393,683.835960811004,None,0.7061,684.2051163972355,None,,,,,,,002,001,2022_Mar_30_1521,2-25_cond_decay,2021.2.3,166.63046274489258,
left,0.75,1.0,0,1,0,1,0,1,0,1,0,0,8,8,5,,,,,,,,,,,,,,,1s,685.2063397001475,686.2069328650832,686.2002277011052,None,687.2002726988867,687.6289441790432,687.2002726988867,687.6289441790432,687.6235893550329,None,687.6235893550329,None,space,0.8023268138058484,687.6235893550329,None,0.4197,688.4428445431404,None,,,,,,,002,001,2022_Mar_30_1521,2-25_cond_decay,2021.2.3,166.63046274489258,
right,1.0,0.75,0,1,0,1,0,1,0,1,0,0,9,9,7,,,,,,,,,,,,,,,1s,689.4472572449595,690.4486386482604,690.4430728591979,None,691.4425342991017,692.4430271000601,691.4425342991017,692.4430271000601,692.4430271000601,None,692.4430271000601,None,space,0.6149451318196952,692.4430271000601,None,0.9968,693.0720536638983,None,,,,,,,002,001,2022_Mar_30_1521,2-25_cond_decay,2021.2.3,166.63046274489258,
left,0.75,1.0,0,1,0,1,0,1,0,1,0,1,0,10,2,,,,,,,,,,,,,,,1s,694.077786759939,695.0787813300267,695.0731952372007,None,696.073294525966,696.6781506459229,696.073294525966,696.6781506459229,696.6718283402734,None,696.6718283402734,None,space,0.4260836741887033,696.6718283402734,None,0.5989,697.1155117880553,None,,,,,,,002,001,2022_Mar_30_1521,2-25_cond_decay,2021.2.3,166.63046274489258,
left,1.0,0.75,1,1,0,1,0,1,0,1,0,1,1,11,3,,,,,,,,,,,,,,,1s,698.1155787520111,699.1150208963081,699.1094588171691,None,700.1096159671433,700.4972571032122,700.1096159671433,700.4972571032122,700.4972571032122,None,700.4972571032122,None,space,0.5287125478498638,700.4972571032122,None,0.3853,701.0428818282671,None,,,,,,,002,001,2022_Mar_30_1521,2-25_cond_decay,2021.2.3,166.63046274489258,
left,0.75,1.0,0,1,0,1,0,1,0,1,0,1,2,12,5,,,,,,,,,,,,,,,1s,702.042246514,703.0430962592363,703.0363462949172,None,704.0368191129528,704.9156259312294,704.0368191129528,704.9156259312294,704.9156259312294,None,704.9156259312294,None,space,0.31835609627887607,704.9156259312294,None,0.8791,705.2470781290904,None,,,,,,,002,001,2022_Mar_30_1521,2-25_cond_decay,2021.2.3,166.63046274489258,
left,0.75,1.0,0,1,0,1,0,1,0,1,0,1,3,13,0,,,,,,,,,,,,,,,1s,706.2488622241654,707.2486321860924,707.2428949219175,None,708.242636881303,708.8548140190542,708.242636881303,708.8548140190542,708.8548140190542,None,708.8548140190542,None,None,,708.8548140190542,None,0.6126,709.8650971022435,None,,,,,,,002,001,2022_Mar_30_1521,2-25_cond_decay,2021.2.3,166.63046274489258,
right,1.0,0.75,0,1,0,1,0,1,0,1,0,1,4,14,1,,,,,,,,,,,,,,,1s,710.8655915171839,711.8663898282684,711.8607747610658,None,712.8611006061547,713.6363330869935,712.8611006061547,713.6363330869935,713.6363330869935,None,713.6363330869935,None,space,0.3815895249135792,713.6363330869935,None,0.7756,714.041608509142,None,,,,,,,002,001,2022_Mar_30_1521,2-25_cond_decay,2021.2.3,166.63046274489258,
right,0.75,1.0,1,1,0,1,0,1,0,1,0,1,5,15,9,,,,,,,,,,,,,,,1s,715.0427054301836,716.0422447300516,716.036283064168,None,717.0368308089674,717.715623931028,717.0368308089674,717.715623931028,717.715623931028,None,717.715623931028,None,space,0.3023547660559416,717.715623931028,None,0.6791,718.0289766211063,None,,,,,,,002,001,2022_Mar_30_1521,2-25_cond_decay,2021.2.3,166.63046274489258,
right,1.0,0.75,0,1,0,1,0,1,0,1,0,1,6,16,8,,,,,,,,,,,,,,,1s,719.0298615959473,720.0299289040267,720.0241816691123,None,721.023860571906,721.8590724910609,721.023860571906,721.8590724910609,721.8525850391015,None,721.8525850391015,None,space,0.30941264098510146,721.8525850391015,None,0.8257,722.1739653660916,None,,,,,,,002,001,2022_Mar_30_1521,2-25_cond_decay,2021.2.3,166.63046274489258,
right,1.0,0.75,0,1,0,1,0,1,0,1,0,1,7,17,7,,,,,,,,,,,,,,,1s,723.1760911769234,724.1759652812034,724.1692798840813,None,725.1693650260568,725.4480100190267,725.1693650260568,725.4480100190267,725.4426955091767,None,725.4426955091767,None,space,0.8712911806069314,725.4426955091767,None,0.2767,726.3257966530509,None,,,,,,,002,001,2022_Mar_30_1521,2-25_cond_decay,2021.2.3,166.63046274489258,
left,0.75,1.0,0,1,0,1,0,1,0,1,0,1,8,18,4,,,,,,,,,,,,,,,1s,727.3314571660012,728.3329999973066,728.3274049512111,None,729.3272474789992,729.4846034189686,729.3272474789992,729.4846034189686,729.4846034189686,None,729.4846034189686,None,space,0.637385225854814,729.4846034189686,None,0.1571,730.1393235051073,None,,,,,,,002,001,2022_Mar_30_1521,2-25_cond_decay,2021.2.3,166.63046274489258,
right,1.0,0.75,0,1,0,1,0,1,0,1,0,1,9,19,6,,,,,,,,,,,,,,,1s,731.1442254642025,732.1451975880191,732.1395943961106,None,733.1390215251595,733.405913261231,733.1390215251595,733.405913261231,733.405913261231,None,733.405913261231,None,space,0.5080015501007438,733.405913261231,None,0.2661,733.9252025191672,None,,,,,,,002,001,2022_Mar_30_1521,2-25_cond_decay,2021.2.3,166.63046274489258,
,,,,1,0,1,0,1,0,1,0,,,,,,,,,,,,,,,,,,,,,,,,,,,,,,,,,,,,,,,,,,,,,002,001,2022_Mar_30_1521,2-25_cond_decay,2021.2.3,166.63046274489258,
right,1.0,0.75,0,1,0,1,0,2,0,2,0,0,0,0,5,,,,,,,,,734.9380230871029,None,734.9380230871029,None,734.9380230871029,None,3s,738.8710757880472,739.8719598329626,739.8662746082991,None,740.8660587579943,741.9449771959335,740.8660587579943,741.9449771959335,741.9449771959335,None,741.9449771959335,None,space,0.4329979307949543,741.9449771959335,None,1.0788,742.398208706174,None,,,,,,,002,001,2022_Mar_30_1521,2-25_cond_decay,2021.2.3,166.63046274489258,
left,0.75,1.0,0,1,0,1,0,2,0,2,0,0,1,1,0,,,,,,,,,,,,,,,3s,743.4046806162223,744.4053191901185,744.3995683561079,None,745.3999708849005,745.840510297101,745.3999708849005,745.840510297101,745.8341245870106,None,745.8341245870106,None,space,0.575871080160141,745.8341245870106,None,0.4315,746.4220424848609,None,,,,,,,002,001,2022_Mar_30_1521,2-25_cond_decay,2021.2.3,166.63046274489258,
right,1.0,0.75,0,1,0,1,0,2,0,2,0,0,2,2,6,,,,,,,,,,,,,,,3s,747.428517817054,748.4296477809548,748.4241668898612,None,749.4233571421355,750.3930937428959,749.4233571421355,750.3930937428959,750.3877821220085,751.3871287060902,750.3877821220085,751.3871287060902,None,,750.3877821220085,751.3871287060902,0.9655,751.4037777292542,None,,,,,,,002,001,2022_Mar_30_1521,2-25_cond_decay,2021.2.3,166.63046274489258,
right,0.75,1.0,1,1,0,1,0,2,0,2,0,0,3,3,9,,,,,,,,,,,,,,,3s,752.3991816882044,753.3998752580956,753.3932193741202,None,754.3936186041683,755.4784935871139,754.3936186041683,755.4784935871139,755.4784935871139,None,755.4784935871139,None,space,0.45148956403136253,755.4784935871139,None,1.0842,755.9498540959321,None,,,,,,,002,001,2022_Mar_30_1521,2-25_cond_decay,2021.2.3,166.63046274489258,
left,1.0,0.75,1,1,0,1,0,2,0,2,0,0,4,4,4,,,,,,,,,,,,,,,3s,756.9495009370148,757.9505084850825,757.944618252106,None,758.9443779070862,760.6420273082331,758.9443779070862,760.6420273082331,760.6420273082331,None,760.6420273082331,None,space,0.31995095405727625,760.6420273082331,None,1.697,760.973903994076,None,,,,,,,002,001,2022_Mar_30_1521,2-25_cond_decay,2021.2.3,166.63046274489258,
right,1.0,0.75,0,1,0,1,0,2,0,2,0,0,5,5,1,,,,,,,,,,,,,,,3s,761.9798224559054,762.9814393110573,762.9745541992597,None,763.9755484242924,764.5749012362212,763.9755484242924,764.5749012362212,764.5749012362212,None,764.5749012362212,None,space,0.39502503676339984,764.5749012362212,None,0.5984,764.9927272861823,None,,,,,,,002,001,2022_Mar_30_1521,2-25_cond_decay,2021.2.3,166.63046274489258,
left,0.75,1.0,0,1,0,1,0,2,0,2,0,0,6,6,3,,,,,,,,,,,,,,,3s,765.998123220168,766.999751587864,766.9926325720735,None,767.9928808901459,768.6783677842468,767.9928808901459,768.6783677842468,768.6783677842468,None,768.6783677842468,None,space,0.37157942401245236,768.6783677842468,None,0.6857,769.0663193413056,None,,,,,,,002,001,2022_Mar_30_1521,2-25_cond_decay,2021.2.3,166.63046274489258,
left,0.75,1.0,0,1,0,1,0,2,0,2,0,0,7,7,7,,,,,,,,,,,,,,,3s,770.0662102052011,771.0655598309822,771.0595693700016,None,772.0602134498768,772.7324685272761,772.0602134498768,772.7324685272761,772.7324685272761,None,772.7324685272761,None,space,0.3334541250951588,772.7324685272761,None,0.6731,773.0886895000003,None,,,,,,,002,001,2022_Mar_30_1521,2-25_cond_decay,2021.2.3,166.63046274489258,
right,1.0,0.75,0,1,0,1,0,2,0,2,0,0,8,8,8,,,,,,,,,,,,,,,3s,774.0953267910518,775.0957838399336,775.0901532629505,None,776.0905021680519,777.4541668449529,776.0905021680519,777.4541668449529,777.4541668449529,None,777.4541668449529,None,space,0.29984648106619716,777.4541668449529,None,1.3636,777.7671914901584,None,,,,,,,002,001,2022_Mar_30_1521,2-25_cond_decay,2021.2.3,166.63046274489258,
left,0.75,1.0,0,1,0,1,0,2,0,2,0,0,9,9,2,,,,,,,,,,,,,,,3s,778.7739172242582,779.775164918974,779.7683532410301,None,780.768542189151,783.2403256548569,780.768542189151,783.2403256548569,783.2338037500158,None,783.2338037500158,None,space,0.40812549693509936,783.2338037500158,None,2.4648,783.6599527741782,None,,,,,,,002,001,2022_Mar_30_1521,2-25_cond_decay,2021.2.3,166.63046274489258,
left,0.75,1.0,0,1,0,1,0,2,0,2,0,1,0,10,2,,,,,,,,,,,,,,,3s,784.659876014106,785.6593650151044,785.6531568840146,None,786.6537433112971,788.6153719322756,786.6537433112971,788.6153719322756,788.609767998103,None,788.609767998103,None,space,0.3602355099283159,788.609767998103,None,1.9551,788.9872779780999,None,,,,,,,002,001,2022_Mar_30_1521,2-25_cond_decay,2021.2.3,166.63046274489258,
right,1.0,0.75,0,1,0,1,0,2,0,2,0,1,1,11,6,,,,,,,,,,,,,,,3s,789.9912624750286,790.9924938748591,790.9865876981057,None,791.9864960219711,794.617004414089,791.9864960219711,794.617004414089,794.617004414089,None,794.617004414089,None,None,,794.617004414089,None,2.6281,795.6277367370203,None,,,,,,,002,001,2022_Mar_30_1521,2-25_cond_decay,2021.2.3,166.63046274489258,
left,0.75,1.0,0,1,0,1,0,2,0,2,0,1,2,12,7,,,,,,,,,,,,,,,3s,796.6277396762744,797.6294859969057,797.6227592858486,None,798.6231584958732,800.1363393869251,798.6231584958732,800.1363393869251,800.1309310700744,None,800.1309310700744,None,None,,800.1309310700744,None,1.5076,801.1362615590915,None,,,,,,,002,001,2022_Mar_30_1521,2-25_cond_decay,2021.2.3,166.63046274489258,
right,1.0,0.75,0,1,0,1,0,2,0,2,0,1,3,13,1,,,,,,,,,,,,,,,3s,802.1439036489464,803.1439539529383,803.1382150221616,None,804.1381957032718,806.2838161559775,804.1381957032718,806.2838161559775,806.2838161559775,None,806.2838161559775,None,None,,806.2838161559775,None,2.1443,807.2886436781846,None,,,,,,,002,001,2022_Mar_30_1521,2-25_cond_decay,2021.2.3,166.63046274489258,
right,0.75,1.0,1,1,0,1,0,2,0,2,0,1,4,14,9,,,,,,,,,,,,,,,3s,808.2890951731242,809.2895991578698,809.2829976892099,None,810.2838134430349,811.439245257061,810.2838134430349,811.439245257061,811.4335810472257,None,811.4335810472257,None,space,0.6723395017907023,811.4335810472257,None,1.147,812.124866113998,None,,,,,,,002,001,2022_Mar_30_1521,2-25_cond_decay,2021.2.3,166.63046274489258,
left,1.0,0.75,1,1,0,1,0,2,0,2,0,1,5,15,4,,,,,,,,,,,,,,,3s,813.1244763513096,814.1257422151975,814.1198864602484,None,815.1197681110352,816.8392687421292,815.1197681110352,816.8392687421292,816.8333912030794,None,816.8333912030794,None,space,0.5285285441204906,816.8333912030794,None,1.7145,817.3727874970064,None,,,,,,,002,001,2022_Mar_30_1521,2-25_cond_decay,2021.2.3,166.63046274489258,
left,0.75,1.0,0,1,0,1,0,2,0,2,0,1,6,16,0,,,,,,,,,,,,,,,3s,818.3740468672477,819.3737629530951,819.3681600200944,None,820.3679431960918,823.1790160848759,820.3679431960918,823.1790160848759,823.1724141319282,None,823.1724141319282,None,None,,823.1724141319282,None,2.8028,824.1845659692772,None,,,,,,,002,001,2022_Mar_30_1521,2-25_cond_decay,2021.2.3,166.63046274489258,
left,0.75,1.0,0,1,0,1,0,2,0,2,0,1,7,17,3,,,,,,,,,,,,,,,3s,825.1797099602409,826.1800786652602,826.1738942372613,None,827.1738983090036,828.0404395479709,827.1738983090036,828.0404395479709,828.0404395479709,None,828.0404395479709,None,None,,828.0404395479709,None,0.8674,829.0454458822496,None,,,,,,,002,001,2022_Mar_30_1521,2-25_cond_decay,2021.2.3,166.63046274489258,
right,1.0,0.75,0,1,0,1,0,2,0,2,0,1,8,18,5,,,,,,,,,,,,,,,3s,830.0518347308971,831.0531289773062,831.0472258711234,None,832.0467011439614,834.1494070971385,832.0467011439614,834.1494070971385,834.1494070971385,None,834.1494070971385,None,space,0.41251615108922124,834.1494070971385,None,2.1014,834.585561173968,None,,,,,,,002,001,2022_Mar_30_1521,2-25_cond_decay,2021.2.3,166.63046274489258,
right,1.0,0.75,0,1,0,1,0,2,0,2,0,1,9,19,8,,,,,,,,,,,,,,,3s,835.5905810850672,836.5922003332525,836.5798808829859,None,837.5800417200662,839.42695895629,837.5800417200662,839.42695895629,839.4213863979094,None,839.4213863979094,None,None,,839.4213863979094,None,1.8387,840.4334399420768,None,,,,,,,002,001,2022_Mar_30_1521,2-25_cond_decay,2021.2.3,166.63046274489258,
,,,,1,0,1,0,2,0,2,0,,,,,,,,,,,,,,,,,,,,,,,,,,,,,,,,,,,,,,,,,,,,,002,001,2022_Mar_30_1521,2-25_cond_decay,2021.2.3,166.63046274489258,
right,1.0,0.75,0,1,0,1,0,3,0,3,0,0,0,0,5,,,,,,,,,841.4393154550344,None,841.4393154550344,None,841.4393154550344,None,10s,853.4467933769338,854.4462831271812,854.434539178852,None,855.4344256450422,864.9614557381719,855.4344256450422,864.9614557381719,864.9614557381719,None,864.9614557381719,None,space,0.3684847461991012,864.9614557381719,None,9.5261,865.347650249023,None,,,,,,,002,001,2022_Mar_30_1521,2-25_cond_decay,2021.2.3,166.63046274489258,
right,1.0,0.75,0,1,0,1,0,3,0,3,0,0,1,1,6,,,,,,,,,,,,,,,10s,866.3438267130405,867.34280944895,867.3370832828805,None,868.3371202922426,869.7133445409127,868.3371202922426,869.7133445409127,869.7133445409127,None,869.7133445409127,None,space,0.36865422409027815,869.7133445409127,None,1.3763,870.0935684000142,None,,,,,,,002,001,2022_Mar_30_1521,2-25_cond_decay,2021.2.3,166.63046274489258,
left,0.75,1.0,0,1,0,1,0,3,0,3,0,0,2,2,8,,,,,,,,,,,,,,,10s,871.0993112912402,872.1004734179005,872.094859442208,None,873.0948394532315,880.324293774087,873.0948394532315,880.324293774087,880.3178327889182,None,880.3178327889182,None,space,0.3081720760092139,880.3178327889182,None,7.2211,880.6389918690547,None,,,,,,,002,001,2022_Mar_30_1521,2-25_cond_decay,2021.2.3,166.63046274489258,
left,1.0,0.75,1,1,0,1,0,3,0,3,0,0,3,3,0,,,,,,,,,,,,,,,10s,881.6400416810066,882.6402260828763,882.6334098740481,None,883.6339947278611,892.5848829802126,883.6339947278611,892.5848829802126,892.5795149421319,None,892.5795149421319,None,space,0.47041362803429365,892.5795149421319,None,8.948,893.0629479442723,None,,,,,,,002,001,2022_Mar_30_1521,2-25_cond_decay,2021.2.3,166.63046274489258,
left,0.75,1.0,0,1,0,1,0,3,0,3,0,0,4,4,4,,,,,,,,,,,,,,,10s,894.0638291449286,895.0643721469678,895.0575802060775,None,896.0579827181064,903.5971328471787,896.0579827181064,903.5971328471787,903.5903779212385,None,903.5903779212385,None,None,,903.5903779212385,None,7.5298,904.6015569651499,None,,,,,,,002,001,2022_Mar_30_1521,2-25_cond_decay,2021.2.3,166.63046274489258,
right,1.0,0.75,0,1,0,1,0,3,0,3,0,0,5,5,1,,,,,,,,,,,,,,,10s,905.6018310259096,906.6032889080234,906.5976753081195,None,907.5967668080702,913.4754319419153,907.5967668080702,913.4754319419153,913.4754319419153,None,913.4754319419153,None,space,0.32652635499835014,913.4754319419153,None,5.8773,913.8203599252738,None,,,,,,,002,001,2022_Mar_30_1521,2-25_cond_decay,2021.2.3,166.63046274489258,
right,0.75,1.0,1,1,0,1,0,3,0,3,0,0,6,6,2,,,,,,,,,,,,,,,10s,914.8155280840583,915.8155616912991,915.8088219421916,None,916.8095946321264,918.2088097212836,916.8095946321264,918.2088097212836,918.2022101338953,None,918.2022101338953,None,None,,918.2022101338953,None,1.391,919.2142595262267,None,,,,,,,002,001,2022_Mar_30_1521,2-25_cond_decay,2021.2.3,166.63046274489258,
right,1.0,0.75,0,1,0,1,0,3,0,3,0,0,7,7,9,,,,,,,,,,,,,,,10s,920.2090563508682,921.2088729082607,921.2032556752674,None,922.2028043442406,923.7479916540906,922.2028043442406,923.7479916540906,923.7415541568771,None,923.7415541568771,None,space,0.39646409125998616,923.7415541568771,None,1.5361,924.1593475672416,None,,,,,,,002,001,2022_Mar_30_1521,2-25_cond_decay,2021.2.3,166.63046274489258,
left,0.75,1.0,0,1,0,1,0,3,0,3,0,0,8,8,7,,,,,,,,,,,,,,,10s,925.1654272670858,926.1663231500424,926.160591061227,None,927.1606585029513,927.5286587481387,927.1606585029513,927.5286587481387,927.522367245052,None,927.522367245052,None,None,,927.522367245052,None,0.3615,928.5351098072715,None,,,,,,,002,001,2022_Mar_30_1521,2-25_cond_decay,2021.2.3,166.63046274489258,
right,1.0,0.75,0,1,0,1,0,3,0,3,0,0,9,9,3,,,,,,,,,,,,,,,10s,929.5346450149082,930.5367226270027,930.5299569969065,None,931.5301291490905,939.094120008871,931.5301291490905,939.094120008871,939.094120008871,None,939.094120008871,None,space,0.35588816506788135,939.094120008871,None,7.5611,939.4683381221257,None,,,,,,,002,001,2022_Mar_30_1521,2-25_cond_decay,2021.2.3,166.63046274489258,
left,0.75,1.0,0,1,0,1,0,3,0,3,0,1,0,10,4,,,,,,,,,,,,,,,10s,940.467787225265,941.4697344643064,941.463051259052,None,942.4637941312976,948.9042307520285,942.4637941312976,948.9042307520285,948.897941024974,None,948.897941024974,None,space,0.26407161308452487,948.897941024974,None,6.4334,949.1788179622963,None,,,,,,,002,001,2022_Mar_30_1521,2-25_cond_decay,2021.2.3,166.63046274489258,
right,1.0,0.75,0,1,0,1,0,3,0,3,0,1,1,11,6,,,,,,,,,,,,,,,10s,950.183635213878,951.1848502550274,951.1779521610588,None,952.1782416240312,957.8618162418716,952.1782416240312,957.8618162418716,957.8553718868643,None,957.8553718868643,None,space,0.4586328831501305,957.8553718868643,None,5.6754,958.3299326160923,None,,,,,,,002,001,2022_Mar_30_1521,2-25_cond_decay,2021.2.3,166.63046274489258,
right,1.0,0.75,0,1,0,1,0,3,0,3,0,1,2,12,3,,,,,,,,,,,,,,,10s,959.329755330924,960.3298882800154,960.3241098592989,None,961.3234434332699,963.3300257269293,961.3234434332699,963.3300257269293,963.3300257269293,None,963.3300257269293,None,None,,963.3300257269293,None,2.0064,964.3406585501507,None,,,,,,,002,001,2022_Mar_30_1521,2-25_cond_decay,2021.2.3,166.63046274489258,
left,0.75,1.0,0,1,0,1,0,3,0,3,0,1,3,13,8,,,,,,,,,,,,,,,10s,965.3400553520769,966.3421063930728,966.3353221071884,None,967.3360204258934,975.0805831621401,967.3360204258934,975.0805831621401,975.0741035412066,None,975.0741035412066,None,space,0.5519142737612128,975.0741035412066,None,7.7342,975.6440038490109,None,,,,,,,002,001,2022_Mar_30_1521,2-25_cond_decay,2021.2.3,166.63046274489258,
left,0.75,1.0,0,1,0,1,0,3,0,3,0,1,4,14,5,,,,,,,,,,,,,,,10s,976.6383564411663,977.6389093720354,977.632089430932,None,978.6319687860087,983.6129749380052,978.6319687860087,983.6129749380052,983.6065767928958,None,983.6065767928958,None,space,0.42745057400316,983.6065767928958,None,4.9723,984.0504763629287,None,,,,,,,002,001,2022_Mar_30_1521,2-25_cond_decay,2021.2.3,166.63046274489258,
right,1.0,0.75,0,1,0,1,0,3,0,3,0,1,5,15,9,,,,,,,,,,,,,,,10s,985.0558093362488,986.0569074200466,986.0501447510906,None,987.0504026589915,989.1957578221336,987.0504026589915,989.1957578221336,989.1904018502682,None,989.1904018502682,None,space,0.39561727503314614,989.1904018502682,None,2.1407,989.6022423449904,None,,,,,,,002,001,2022_Mar_30_1521,2-25_cond_decay,2021.2.3,166.63046274489258,
left,1.0,0.75,1,1,0,1,0,3,0,3,0,1,6,16,0,,,,,,,,,,,,,,,10s,990.6070030541159,991.6084277778864,991.6017729672603,None,992.6025202549063,995.9106516730972,992.6025202549063,995.9106516730972,995.9053657562472,996.9053110550158,995.9053657562472,996.9053110550158,None,,995.9053657562472,996.9053110550158,3.3043,996.9224099488929,None,,,,,,,002,001,2022_Mar_30_1521,2-25_cond_decay,2021.2.3,166.63046274489258,
left,0.75,1.0,0,1,0,1,0,3,0,3,0,1,7,17,7,,,,,,,,,,,,,,,10s,997.9173401282169,998.9173724162392,998.9106296622194,None,999.9113798788749,1005.1579948943108,999.9113798788749,1005.1579948943108,1005.1523976549506,None,1005.1523976549506,None,space,0.4495726306922734,1005.1523976549506,None,5.2378,1005.6183849722147,None,,,,,,,002,001,2022_Mar_30_1521,2-25_cond_decay,2021.2.3,166.63046274489258,
right,0.75,1.0,1,1,0,1,0,3,0,3,0,1,8,18,2,,,,,,,,,,,,,,,10s,1006.6181488349102,1007.6196701829322,1007.6140242260881,None,1008.6137488270178,1017.837718300987,1008.6137488270178,1017.837718300987,1017.837718300987,None,1017.837718300987,None,space,0.3962915549054742,1017.837718300987,None,9.2248,1018.2502940921113,None,,,,,,,002,001,2022_Mar_30_1521,2-25_cond_decay,2021.2.3,166.63046274489258,
right,1.0,0.75,0,1,0,1,0,3,0,3,0,1,9,19,1,,,,,,,,,,,,,,,10s,1019.2496447782032,1020.2502425941639,1020.2436097101308,None,1021.2441036459059,1027.606078051962,1021.2441036459059,1027.606078051962,1027.6004699571058,None,1027.6004699571058,None,space,0.7615567343309522,1027.6004699571058,None,6.3526,1028.3763659461401,None,,,,,,,002,001,2022_Mar_30_1521,2-25_cond_decay,2021.2.3,166.63046274489258,
,,,,1,0,1,0,3,0,3,0,,,,,,,,,,,,,,,,,,,,,,,,,,,,,,,,,,,,,,,,,,,,,002,001,2022_Mar_30_1521,2-25_cond_decay,2021.2.3,166.63046274489258,
,,,,1,0,1,0,,,,,,,,,,,,,,,,,,,,,,,,,,,,,,,,,,,,,,,,,,,1029.383639245294,None,1029.383639245294,None,1029.383639245294,None,002,001,2022_Mar_30_1521,2-25_cond_decay,2021.2.3,166.63046274489258,
right,1.0,0.75,0,2,0,2,0,0,0,0,0,0,0,0,7,,,,,,,,,1034.3877282752655,None,1034.3877282752655,None,1034.3877282752655,None,3s,1052.2790324091911,1053.279363039881,1053.267335032113,None,1054.2674911092035,1055.1530176359229,1054.2674911092035,1055.1530176359229,1055.1530176359229,None,1055.1530176359229,None,space,0.3370099891908467,1055.1530176359229,None,0.8843,1055.5030919001438,None,,,,,,,002,001,2022_Mar_30_1521,2-25_cond_decay,2021.2.3,166.63046274489258,
left,0.75,1.0,0,2,0,2,0,0,0,0,0,0,1,1,3,,,,,,,,,,,,,,,3s,1056.5089039099403,1057.5099279992282,1057.5043266471475,None,1058.504248098936,1060.8072066190653,1058.504248098936,1060.8072066190653,1060.8072066190653,None,1060.8072066190653,None,space,0.31481999112293124,1060.8072066190653,None,2.3036,1061.1334318229929,None,,,,,,,002,001,2022_Mar_30_1521,2-25_cond_decay,2021.2.3,166.63046274489258,
right,1.0,0.75,0,2,0,2,0,0,0,0,0,0,2,2,4,,,,,,,,,,,,,,,3s,1062.1388422208838,1063.140782975126,1063.1340168700553,None,1064.1345705669373,1065.5511594302952,1064.1345705669373,1065.5511594302952,1065.5447278851643,None,1065.5447278851643,None,space,0.32124376809224486,1065.5447278851643,None,1.4078,1065.8789001409896,None,,,,,,,002,001,2022_Mar_30_1521,2-25_cond_decay,2021.2.3,166.63046274489258,
right,1.0,0.75,0,2,0,2,0,0,0,0,0,0,3,3,1,,,,,,,,,,,,,,,3s,1066.8797748670913,1067.879920464009,1067.8732568379492,None,1068.8734017140232,1070.3825764930807,1068.8734017140232,1070.3825764930807,1070.3825764930807,None,1070.3825764930807,None,space,0.3714437079615891,1070.3825764930807,None,1.5071,1070.7747750962153,None,,,,,,,002,001,2022_Mar_30_1521,2-25_cond_decay,2021.2.3,166.63046274489258,
right,0.75,1.0,1,2,0,2,0,0,0,0,0,0,4,4,5,,,,,,,,,,,,,,,3s,1071.7765067419969,1072.7761432472616,1072.7704109591432,None,1073.7708061728626,1075.9279324370436,1073.7708061728626,1075.9279324370436,1075.9279324370436,None,1075.9279324370436,None,space,0.3300907230004668,1075.9279324370436,None,2.1572,1076.2740334682167,None,,,,,,,002,001,2022_Mar_30_1521,2-25_cond_decay,2021.2.3,166.63046274489258,
left,1.0,0.75,1,2,0,2,0,0,0,0,0,0,5,5,8,,,,,,,,,,,,,,,3s,1077.2785251452588,1078.2793715130538,1078.2736855898984,None,1079.2732310099527,1080.963043930009,1079.2732310099527,1080.963043930009,1080.956670712214,None,1080.956670712214,None,space,0.26929150708019733,1080.956670712214,None,1.6821,1081.2437098971568,None,,,,,,,002,001,2022_Mar_30_1521,2-25_cond_decay,2021.2.3,166.63046274489258,
right,1.0,0.75,0,2,0,2,0,0,0,0,0,0,6,6,2,,,,,,,,,,,,,,,3s,1082.2478021532297,1083.2495503160171,1083.2427082369104,None,1084.2431462421082,1086.9398023150861,1084.2431462421082,1086.9398023150861,1086.9343860680237,None,1086.9343860680237,None,space,0.40364742605015635,1086.9343860680237,None,2.6914,1087.3511047451757,None,,,,,,,002,001,2022_Mar_30_1521,2-25_cond_decay,2021.2.3,166.63046274489258,
left,0.75,1.0,0,2,0,2,0,0,0,0,0,0,7,7,6,,,,,,,,,,,,,,,3s,1088.3574324301444,1089.358399157878,1089.3516372032464,None,1090.352270346135,1093.1208709850907,1090.352270346135,1093.1208709850907,1093.1145353489555,None,1093.1145353489555,None,space,0.5194926229305565,1093.1145353489555,None,2.7603,1093.6474101012573,None,,,,,,,002,001,2022_Mar_30_1521,2-25_cond_decay,2021.2.3,166.63046274489258,
left,0.75,1.0,0,2,0,2,0,0,0,0,0,0,8,8,0,,,,,,,,,,,,,,,3s,1094.6485880161636,1095.6485166172497,1095.6427717641927,None,1096.6428809100762,1098.8433213778771,1096.6428809100762,1098.8433213778771,1098.8433213778771,None,1098.8433213778771,None,space,0.5347110070288181,1098.8433213778771,None,2.1994,1099.3946285028942,None,,,,,,,002,001,2022_Mar_30_1521,2-25_cond_decay,2021.2.3,166.63046274489258,
left,0.75,1.0,0,2,0,2,0,0,0,0,0,0,9,9,9,,,,,,,,,,,,,,,3s,1100.3942012041807,1101.3947375309654,1101.3879996971227,None,1102.3881112788804,1104.812349003274,1102.3881112788804,1104.812349003274,1104.812349003274,None,1104.812349003274,None,None,,1104.812349003274,None,2.4222,1105.8226878452115,None,,,,,,,002,001,2022_Mar_30_1521,2-25_cond_decay,2021.2.3,166.63046274489258,
left,0.75,1.0,0,2,0,2,0,0,0,0,0,1,0,10,3,,,,,,,,,,,,,,,3s,1106.818849299103,1107.8184794411063,1107.812828314025,None,1108.8121083481237,1109.1756049622782,1108.8121083481237,1109.1756049622782,1109.1756049622782,1110.1757469051518,1109.1756049622782,1110.1757469051518,None,,1109.1756049622782,1110.1757469051518,0.3649,1110.1865639030002,None,,,,,,,002,001,2022_Mar_30_1521,2-25_cond_decay,2021.2.3,166.63046274489258,
right,1.0,0.75,0,2,0,2,0,0,0,0,0,1,1,11,7,,,,,,,,,,,,,,,3s,1111.1931472201832,1112.1942743719555,1112.188568457961,None,1113.1881242841482,1114.581618739292,1113.1881242841482,1114.581618739292,1114.5763060492463,None,1114.5763060492463,None,space,0.3137354669161141,1114.5763060492463,None,1.3902,1114.9084937381558,None,,,,,,,002,001,2022_Mar_30_1521,2-25_cond_decay,2021.2.3,166.63046274489258,
left,0.75,1.0,0,2,0,2,0,0,0,0,0,1,2,12,0,,,,,,,,,,,,,,,3s,1115.9084174032323,1116.9093004921451,1116.9036546358839,None,1117.9030372942798,1119.1572385332547,1117.9030372942798,1119.1572385332547,1119.1507584522478,None,1119.1507584522478,None,space,0.4512745589017868,1119.1507584522478,None,1.2447,1119.6186961960047,None,,,,,,,002,001,2022_Mar_30_1521,2-25_cond_decay,2021.2.3,166.63046274489258,
left,0.75,1.0,0,2,0,2,0,0,0,0,0,1,3,13,6,,,,,,,,,,,,,,,3s,1120.6182477232069,1121.6178916608915,1121.612220518291,None,1122.6126015740447,1123.374455103185,1122.6126015740447,1123.374455103185,1123.368120952975,None,1123.368120952975,None,None,,1123.368120952975,None,0.7552,1124.3806358911097,None,,,,,,,002,001,2022_Mar_30_1521,2-25_cond_decay,2021.2.3,166.63046274489258,
left,0.75,1.0,0,2,0,2,0,0,0,0,0,1,4,14,9,,,,,,,,,,,,,,,3s,1125.3755509993061,1126.3755654520355,1126.369885424152,None,1127.369535736274,1129.6891803052276,1127.369535736274,1129.6891803052276,1129.683792217169,None,1129.683792217169,None,space,0.3101754058152437,1129.683792217169,None,2.3123,1130.017258608248,None,,,,,,,002,001,2022_Mar_30_1521,2-25_cond_decay,2021.2.3,166.63046274489258,
right,1.0,0.75,0,2,0,2,0,0,0,0,0,1,5,15,1,,,,,,,,,,,,,,,3s,1131.022419882007,1132.0240244199522,1132.018520175945,None,1133.018577335868,1134.6106941732578,1133.018577335868,1134.6106941732578,1134.6043825838715,None,1134.6043825838715,None,None,,1134.6043825838715,None,1.5836,1135.617136136163,None,,,,,,,002,001,2022_Mar_30_1521,2-25_cond_decay,2021.2.3,166.63046274489258,
right,1.0,0.75,0,2,0,2,0,0,0,0,0,1,6,16,4,,,,,,,,,,,,,,,3s,1136.6118719032966,1137.6118098120205,1137.6061807749793,None,1138.6056604329497,1140.5692902370356,1138.6056604329497,1140.5692902370356,1140.5626643169671,None,1140.5626643169671,None,None,,1140.5626643169671,None,1.9548,1141.5681736352853,None,,,,,,,002,001,2022_Mar_30_1521,2-25_cond_decay,2021.2.3,166.63046274489258,
right,1.0,0.75,0,2,0,2,0,0,0,0,0,1,7,17,2,,,,,,,,,,,,,,,3s,1142.5696229189634,1143.5691145509481,1143.563551892992,None,1144.5634928899817,1147.4002457140014,1144.5634928899817,1147.4002457140014,1147.4002457140014,None,1147.4002457140014,None,space,0.34578686859458685,1147.4002457140014,None,2.8348,1147.7685829768889,None,,,,,,,002,001,2022_Mar_30_1521,2-25_cond_decay,2021.2.3,166.63046274489258,
right,0.75,1.0,1,2,0,2,0,0,0,0,0,1,8,18,5,,,,,,,,,,,,,,,3s,1148.769622953143,1149.7697377009317,1149.7630349709652,None,1150.7628594408743,1152.8044862621464,1150.7628594408743,1152.8044862621464,1152.7980887349695,None,1152.7980887349695,None,None,,1152.7980887349695,None,2.0329,1153.8103576032445,None,,,,,,,002,001,2022_Mar_30_1521,2-25_cond_decay,2021.2.3,166.63046274489258,
left,1.0,0.75,1,2,0,2,0,0,0,0,0,1,9,19,8,,,,,,,,,,,,,,,3s,1154.810295786243,1155.811249263119,1155.805544052273,None,1156.8052782141604,1158.0236461688764,1156.8052782141604,1158.0236461688764,1158.0181335508823,1159.017975226976,1158.0181335508823,1159.017975226976,None,,1158.0181335508823,1159.017975226976,1.2164,1159.0287507371977,None,,,,,,,002,001,2022_Mar_30_1521,2-25_cond_decay,2021.2.3,166.63046274489258,
,,,,2,0,2,0,0,0,0,0,,,,,,,,,,,,,,,,,,,,,,,,,,,,,,,,,,,,,,,,,,,,,002,001,2022_Mar_30_1521,2-25_cond_decay,2021.2.3,166.63046274489258,
right,1.0,0.75,0,2,0,2,0,1,0,1,0,0,0,0,5,,,,,,,,,1160.0360221932642,None,1160.0360221932642,None,1160.0360221932642,None,1s,1164.9133935049176,1165.9146655951627,1165.9024988240562,None,1166.9025500812568,1167.490200262051,1166.9025500812568,1167.490200262051,1167.490200262051,None,1167.490200262051,None,space,0.3598386407829821,1167.490200262051,None,0.5871,1167.8719833749346,None,,,,,,,002,001,2022_Mar_30_1521,2-25_cond_decay,2021.2.3,166.63046274489258,
right,0.75,1.0,1,2,0,2,0,1,0,1,0,0,1,1,0,,,,,,,,,,,,,,,1s,1168.8720220192336,1169.8717867159285,1169.8661959101446,None,1170.8663212121464,1171.5995561499149,1170.8663212121464,1171.5995561499149,1171.5995561499149,None,1171.5995561499149,None,space,0.4425125168636441,1171.5995561499149,None,0.7313,1172.0529656922445,None,,,,,,,002,001,2022_Mar_30_1521,2-25_cond_decay,2021.2.3,166.63046274489258,
left,0.75,1.0,0,2,0,2,0,1,0,1,0,0,2,2,6,,,,,,,,,,,,,,,1s,1173.0585781140253,1174.0604105172679,1174.0536651792936,None,1175.0536001869477,1175.4709527092054,1175.0536001869477,1175.4709527092054,1175.4644174869172,None,1175.4644174869172,None,space,0.577560544013977,1175.4644174869172,None,0.4111,1176.0528826778755,None,,,,,,,002,001,2022_Mar_30_1521,2-25_cond_decay,2021.2.3,166.63046274489258,
left,0.75,1.0,0,2,0,2,0,1,0,1,0,0,3,3,9,,,,,,,,,,,,,,,1s,1177.054154341109,1178.0535012651235,1178.0474946368486,None,1179.047545865178,1179.8767426409759,1179.047545865178,1179.8767426409759,1179.8704363652505,None,1179.8704363652505,None,space,0.49954382982105017,1179.8704363652505,None,0.8212,1180.3871752261184,None,,,,,,,002,001,2022_Mar_30_1521,2-25_cond_decay,2021.2.3,166.63046274489258,
right,1.0,0.75,0,2,0,2,0,1,0,1,0,0,4,4,3,,,,,,,,,,,,,,,1s,1181.3921875609085,1182.3926846599206,1182.3869722383097,None,1183.3870642478578,1184.3262443039566,1183.3870642478578,1184.3262443039566,1184.3262443039566,None,1184.3262443039566,None,space,0.3797890511341393,1184.3262443039566,None,0.9374,1184.7190825780854,None,,,,,,,002,001,2022_Mar_30_1521,2-25_cond_decay,2021.2.3,166.63046274489258,
right,1.0,0.75,0,2,0,2,0,1,0,1,0,0,5,5,2,,,,,,,,,,,,,,,1s,1185.7207182939164,1186.7200061222538,1186.7144660390913,None,1187.7141231982969,1188.580428195186,1187.7141231982969,1188.580428195186,1188.573950830847,None,1188.573950830847,None,None,,1188.573950830847,None,0.8557,1189.5861323880963,None,,,,,,,002,001,2022_Mar_30_1521,2-25_cond_decay,2021.2.3,166.63046274489258,
left,0.75,1.0,0,2,0,2,0,1,0,1,0,0,6,6,7,,,,,,,,,,,,,,,1s,1190.585436523892,1191.5874289609492,1191.580653261859,None,1192.5812351452187,1193.5744361239485,1192.5812351452187,1193.5744361239485,1193.569138227962,1194.5683444389142,1193.569138227962,1194.5683444389142,None,,1193.569138227962,1194.5683444389142,0.9897,1194.5792408781126,None,,,,,,,002,001,2022_Mar_30_1521,2-25_cond_decay,2021.2.3,166.63046274489258,
left,0.75,1.0,0,2,0,2,0,1,0,1,0,0,7,7,4,,,,,,,,,,,,,,,1s,1195.5811209739186,1196.5803990042768,1196.5746912378818,None,1197.574876932893,1197.8531306381337,1197.574876932893,1197.8531306381337,1197.8466435912997,None,1197.8466435912997,None,space,0.40339549584314227,1197.8466435912997,None,0.2712,1198.2702300311066,None,,,,,,,002,001,2022_Mar_30_1521,2-25_cond_decay,2021.2.3,166.63046274489258,
right,1.0,0.75,0,2,0,2,0,1,0,1,0,0,8,8,1,,,,,,,,,,,,,,,1s,1199.2769441618584,1200.2780680479482,1200.2712334529497,None,1201.27193346899,1201.9321628781036,1201.27193346899,1201.9321628781036,1201.9321628781036,None,1201.9321628781036,None,space,0.34988055285066366,1201.9321628781036,None,0.6587,1202.29422787996,None,,,,,,,002,001,2022_Mar_30_1521,2-25_cond_decay,2021.2.3,166.63046274489258,
left,1.0,0.75,1,2,0,2,0,1,0,1,0,0,9,9,8,,,,,,,,,,,,,,,1s,1203.3007965451106,1204.3019477128983,1204.2962662661448,None,1205.2959866640158,1205.6287455190904,1205.2959866640158,1205.6287455190904,1205.622223235201,None,1205.622223235201,None,None,,1205.622223235201,None,0.3255,1206.6335998829454,None,,,,,,,002,001,2022_Mar_30_1521,2-25_cond_decay,2021.2.3,166.63046274489258,
right,1.0,0.75,0,2,0,2,0,1,0,1,0,1,0,10,5,,,,,,,,,,,,,,,1s,1207.6343019888736,1208.6347317029722,1208.6289727222174,None,1209.6294780950993,1210.5437754890881,1209.6294780950993,1210.5437754890881,1210.5372832240537,None,1210.5372832240537,None,space,0.488760890904814,1210.5372832240537,None,0.9053,1211.0457612611353,None,,,,,,,002,001,2022_Mar_30_1521,2-25_cond_decay,2021.2.3,166.63046274489258,
left,0.75,1.0,0,2,0,2,0,1,0,1,0,1,1,11,4,,,,,,,,,,,,,,,1s,1212.045917890966,1213.046978331171,1213.0413516871631,None,1214.040714187082,1214.9848674600944,1214.040714187082,1214.9848674600944,1214.9794327830896,None,1214.9794327830896,None,space,0.36661369586363435,1214.9794327830896,None,0.9364,1215.3624309739098,None,,,,,,,002,001,2022_Mar_30_1521,2-25_cond_decay,2021.2.3,166.63046274489258,
right,1.0,0.75,0,2,0,2,0,1,0,1,0,1,2,12,1,,,,,,,,,,,,,,,1s,1216.3675128398463,1217.368115013931,1217.362432447262,None,1218.361897955183,1218.926498601213,1218.361897955183,1218.926498601213,1218.926498601213,None,1218.926498601213,None,None,,1218.926498601213,None,0.563,1219.9364582248963,None,,,,,,,002,001,2022_Mar_30_1521,2-25_cond_decay,2021.2.3,166.63046274489258,
left,0.75,1.0,0,2,0,2,0,1,0,1,0,1,3,13,6,,,,,,,,,,,,,,,1s,1220.9362910590135,1221.9379912419245,1221.9324704431929,None,1222.926130278036,1223.7680290578865,1222.926130278036,1223.7680290578865,1223.7680290578865,1224.7679827101529,1223.7680290578865,1224.7679827101529,None,,1223.7680290578865,1224.7679827101529,0.84,1224.7788267852738,None,,,,,,,002,001,2022_Mar_30_1521,2-25_cond_decay,2021.2.3,166.63046274489258,
right,1.0,0.75,0,2,0,2,0,1,0,1,0,1,4,14,3,,,,,,,,,,,,,,,1s,1225.7853464991786,1226.7869394081645,1226.780099769123,None,1227.780460756272,1228.3555332538672,1227.780460756272,1228.3555332538672,1228.3490551402792,None,1228.3490551402792,None,space,0.4769836380146444,1228.3490551402792,None,0.5652,1228.8462100923061,None,,,,,,,002,001,2022_Mar_30_1521,2-25_cond_decay,2021.2.3,166.63046274489258,
right,1.0,0.75,0,2,0,2,0,1,0,1,0,1,5,15,2,,,,,,,,,,,,,,,1s,1229.8413627170958,1230.8411618852988,1230.8344992911443,None,1231.8345512952656,1232.3497442859225,1231.8345512952656,1232.3497442859225,1232.3497442859225,None,1232.3497442859225,None,space,0.316227194853127,1232.3497442859225,None,0.5148,1232.6834101332352,None,,,,,,,002,001,2022_Mar_30_1521,2-25_cond_decay,2021.2.3,166.63046274489258,
left,1.0,0.75,1,2,0,2,0,1,0,1,0,1,6,16,8,,,,,,,,,,,,,,,1s,1233.6879952838644,1234.688910851255,1234.6831165319309,None,1235.6833356292918,1236.477648217231,1235.6833356292918,1236.477648217231,1236.4702571001835,None,1236.4702571001835,None,space,0.34772047214210033,1236.4702571001835,None,0.7832,1236.8390944632702,None,,,,,,,002,001,2022_Mar_30_1521,2-25_cond_decay,2021.2.3,166.63046274489258,
left,0.75,1.0,0,2,0,2,0,1,0,1,0,1,7,17,7,,,,,,,,,,,,,,,1s,1237.8411331102252,1238.841203357093,1238.8342149909586,None,1239.8350644181482,1240.156146037858,1239.8350644181482,1240.156146037858,1240.156146037858,None,1240.156146037858,None,None,,1240.156146037858,None,0.3205,1241.1664165030234,None,,,,,,,002,001,2022_Mar_30_1521,2-25_cond_decay,2021.2.3,166.63046274489258,
left,0.75,1.0,0,2,0,2,0,1,0,1,0,1,8,18,9,,,,,,,,,,,,,,,1s,1242.1618268401362,1243.1618426460773,1243.1562235672027,None,1244.1561134122312,1244.4344421392307,1244.1561134122312,1244.4344421392307,1244.4344421392307,None,1244.4344421392307,None,None,,1244.4344421392307,None,0.2782,1245.4392910138704,None,,,,,,,002,001,2022_Mar_30_1521,2-25_cond_decay,2021.2.3,166.63046274489258,
right,0.75,1.0,1,2,0,2,0,1,0,1,0,1,9,19,0,,,,,,,,,,,,,,,1s,1246.4450742481276,1247.4468703689054,1247.4402231019922,None,1248.4402052070946,1248.755624618847,1248.4402052070946,1248.755624618847,1248.755624618847,None,1248.755624618847,None,space,0.39843314280733466,1248.755624618847,None,0.3139,1249.1724427160807,None,,,,,,,002,001,2022_Mar_30_1521,2-25_cond_decay,2021.2.3,166.63046274489258,
,,,,2,0,2,0,1,0,1,0,,,,,,,,,,,,,,,,,,,,,,,,,,,,,,,,,,,,,,,,,,,,,002,001,2022_Mar_30_1521,2-25_cond_decay,2021.2.3,166.63046274489258,
right,1.0,0.75,0,2,0,2,0,2,0,2,0,0,0,0,7,,,,,,,,,1250.1744263148867,None,1250.1744263148867,None,1250.1744263148867,None,10s,1256.7967397700995,1257.7980685071088,1257.7924017840996,None,1258.7921245698817,1268.1239283769391,1258.7921245698817,1268.1239283769391,1268.117635894101,None,1268.117635894101,None,space,0.4764127479866147,1268.117635894101,None,9.323,1268.6150507279672,None,,,,,,,002,001,2022_Mar_30_1521,2-25_cond_decay,2021.2.3,166.63046274489258,
left,0.75,1.0,0,2,0,2,0,2,0,2,0,0,1,1,3,,,,,,,,,,,,,,,10s,1269.6211567521095,1270.6220337892883,1270.6164644150995,None,1271.6163852689788,1273.167987478897,1271.6163852689788,1273.167987478897,1273.167987478897,None,1273.167987478897,None,space,0.3540572156198323,1273.167987478897,None,1.5512,1273.541656897869,None,,,,,,,002,001,2022_Mar_30_1521,2-25_cond_decay,2021.2.3,166.63046274489258,
right,1.0,0.75,0,2,0,2,0,2,0,2,0,0,2,2,2,,,,,,,,,,,,,,,10s,1274.5484721492976,1275.5490945768543,1275.5433615962975,None,1276.543201006949,1284.3976323469542,1276.543201006949,1284.3976323469542,1284.3976323469542,None,1284.3976323469542,None,None,,1284.3976323469542,None,7.8526,1285.4082380700856,None,,,,,,,002,001,2022_Mar_30_1521,2-25_cond_decay,2021.2.3,166.63046274489258,
right,1.0,0.75,0,2,0,2,0,2,0,2,0,0,3,3,0,,,,,,,,,,,,,,,10s,1286.4040501038544,1287.4040039172396,1287.3972802101634,None,1288.397499593906,1288.8568349569105,1288.397499593906,1288.8568349569105,1288.8504659058526,None,1288.8504659058526,None,None,,1288.8504659058526,None,0.4504,1289.8567788749933,None,,,,,,,002,001,2022_Mar_30_1521,2-25_cond_decay,2021.2.3,166.63046274489258,
right,0.75,1.0,1,2,0,2,0,2,0,2,0,0,4,4,6,,,,,,,,,,,,,,,10s,1290.8581797271036,1291.8577793701552,1291.8521345620975,None,1292.8524098792113,1298.0401330832392,1292.8524098792113,1298.0401330832392,1298.0401330832392,None,1298.0401330832392,None,None,,1298.0401330832392,None,5.1874,1299.0452159810811,None,,,,,,,002,001,2022_Mar_30_1521,2-25_cond_decay,2021.2.3,166.63046274489258,
left,1.0,0.75,1,2,0,2,0,2,0,2,0,0,5,5,1,,,,,,,,,,,,,,,10s,1300.0513808052056,1301.0518031748943,1301.0460756630637,None,1302.0455623678863,1302.348635805305,1302.0455623678863,1302.348635805305,1302.348635805305,None,1302.348635805305,None,None,,1302.348635805305,None,0.3026,1303.3538747010753,None,,,,,,,002,001,2022_Mar_30_1521,2-25_cond_decay,2021.2.3,166.63046274489258,
right,1.0,0.75,0,2,0,2,0,2,0,2,0,0,6,6,9,,,,,,,,,,,,,,,10s,1304.3598465062678,1305.361262067221,1305.3555252728984,None,1306.3552360199392,1312.2760380771942,1306.3552360199392,1312.2760380771942,1312.2760380771942,None,1312.2760380771942,None,space,0.3579454431310296,1312.2760380771942,None,5.9193,1312.6570897782221,None,,,,,,,002,001,2022_Mar_30_1521,2-25_cond_decay,2021.2.3,166.63046274489258,
left,0.75,1.0,0,2,0,2,0,2,0,2,0,0,7,7,5,,,,,,,,,,,,,,,10s,1313.6629362362437,1314.6636284110136,1314.657898102887,None,1315.6574839139357,1318.3362873829901,1315.6574839139357,1318.3362873829901,1318.329836370889,None,1318.329836370889,None,space,0.3442265409976244,1318.329836370889,None,2.6704,1318.6871119658463,None,,,,,,,002,001,2022_Mar_30_1521,2-25_cond_decay,2021.2.3,166.63046274489258,
right,1.0,0.75,0,2,0,2,0,2,0,2,0,0,8,8,4,,,,,,,,,,,,,,,10s,1319.6928023230284,1320.6936886808835,1320.6879560970701,None,1321.6878769430332,1327.941352791153,1321.6878769430332,1327.941352791153,1327.9349696971476,None,1327.9349696971476,None,space,0.47502759424969554,1327.9349696971476,None,6.2439,1328.4325738078915,None,,,,,,,002,001,2022_Mar_30_1521,2-25_cond_decay,2021.2.3,166.63046274489258,
left,0.75,1.0,0,2,0,2,0,2,0,2,0,0,9,9,8,,,,,,,,,,,,,,,10s,1329.438559571281,1330.439388412051,1330.433781960979,None,1331.4337391862646,1337.5121220760047,1331.4337391862646,1337.5121220760047,1337.5121220760047,None,1337.5121220760047,None,None,,1337.5121220760047,None,6.079,1338.523391528055,None,,,,,,,002,001,2022_Mar_30_1521,2-25_cond_decay,2021.2.3,166.63046274489258,
left,1.0,0.75,1,2,0,2,0,2,0,2,0,1,0,10,1,,,,,,,,,,,,,,,10s,1339.518296950031,1340.51833797805,1340.511695322115,None,1341.512585640885,1349.7721324511804,1341.512585640885,1349.7721324511804,1349.7656933222897,None,1349.7656933222897,None,space,0.3723743581213057,1349.7656933222897,None,8.2529,1350.158811389003,None,,,,,,,002,001,2022_Mar_30_1521,2-25_cond_decay,2021.2.3,166.63046274489258,
left,0.75,1.0,0,2,0,2,0,2,0,2,0,1,1,11,3,,,,,,,,,,,,,,,10s,1351.1602235152386,1352.1605140632018,1352.1546554639935,None,1353.1541191060096,1353.8195381360129,1353.1541191060096,1353.8195381360129,1353.8132180459797,None,1353.8132180459797,None,space,0.7488455013372004,1353.8132180459797,None,0.6587,1354.5836323988624,None,,,,,,,002,001,2022_Mar_30_1521,2-25_cond_decay,2021.2.3,166.63046274489258,
right,1.0,0.75,0,2,0,2,0,2,0,2,0,1,2,12,9,,,,,,,,,,,,,,,10s,1355.588923165109,1356.5909977201372,1356.5841126870364,None,1357.5850612679496,1365.014755266253,1357.5850612679496,1365.014755266253,1365.014755266253,None,1365.014755266253,None,None,,1365.014755266253,None,7.4304,1366.0253942692652,None,,,,,,,002,001,2022_Mar_30_1521,2-25_cond_decay,2021.2.3,166.63046274489258,
left,0.75,1.0,0,2,0,2,0,2,0,2,0,1,3,13,7,,,,,,,,,,,,,,,10s,1367.0260733552277,1368.0272154710256,1368.0204884712584,None,1369.0206459392793,1369.7660810640082,1369.0206459392793,1369.7660810640082,1369.7660810640082,None,1369.7660810640082,None,None,,1369.7660810640082,None,0.7446,1370.770795523189,None,,,,,,,002,001,2022_Mar_30_1521,2-25_cond_decay,2021.2.3,166.63046274489258,
right,1.0,0.75,0,2,0,2,0,2,0,2,0,1,4,14,4,,,,,,,,,,,,,,,10s,1371.7770591941662,1372.7782480800524,1372.772654033266,None,1373.7720328429714,1382.76615033485,1373.7720328429714,1382.76615033485,1382.76615033485,None,1382.76615033485,None,space,0.5239121560007334,1382.76615033485,None,8.9927,1383.3099448382854,None,,,,,,,002,001,2022_Mar_30_1521,2-25_cond_decay,2021.2.3,166.63046274489258,
left,0.75,1.0,0,2,0,2,0,2,0,2,0,1,5,15,5,,,,,,,,,,,,,,,10s,1384.3162618163042,1385.317313876003,1385.3117822711356,None,1386.3117639482953,1390.6627005520277,1386.3117639482953,1390.6627005520277,1390.6627005520277,None,1390.6627005520277,None,None,,1390.6627005520277,None,4.3515,1391.6734525999054,None,,,,,,,002,001,2022_Mar_30_1521,2-25_cond_decay,2021.2.3,166.63046274489258,
right,1.0,0.75,0,2,0,2,0,2,0,2,0,1,6,16,2,,,,,,,,,,,,,,,10s,1392.6741078789346,1393.6753407670185,1393.6685886951163,None,1394.668468195945,1398.7114460640587,1394.668468195945,1398.7114460640587,1398.7114460640587,None,1398.7114460640587,None,None,,1398.7114460640587,None,4.0413,1399.7157749398611,None,,,,,,,002,001,2022_Mar_30_1521,2-25_cond_decay,2021.2.3,166.63046274489258,
right,0.75,1.0,1,2,0,2,0,2,0,2,0,1,7,17,6,,,,,,,,,,,,,,,10s,1400.7172500849701,1401.717775047291,1401.710858150851,None,1402.7111245743,1410.7955916491337,1402.7111245743,1410.7955916491337,1410.7955916491337,None,1410.7955916491337,None,None,,1410.7955916491337,None,8.0831,1411.8006084789522,None,,,,,,,002,001,2022_Mar_30_1521,2-25_cond_decay,2021.2.3,166.63046274489258,
right,1.0,0.75,0,2,0,2,0,2,0,2,0,1,8,18,0,,,,,,,,,,,,,,,10s,1412.8017992759123,1413.8017339510843,1413.7961078239605,None,1414.795915665105,1420.0364476419054,1414.795915665105,1420.0364476419054,1420.0311250519007,None,1420.0311250519007,None,space,0.4989377688616514,1420.0311250519007,None,5.2325,1420.5525178262033,None,,,,,,,002,001,2022_Mar_30_1521,2-25_cond_decay,2021.2.3,166.63046274489258,
left,0.75,1.0,0,2,0,2,0,2,0,2,0,1,9,19,8,,,,,,,,,,,,,,,10s,1421.5579703161493,1422.5591814829968,1422.5536212269217,None,1423.5528385019861,1432.412037638016,1423.5528385019861,1432.412037638016,1432.406695173122,None,1432.406695173122,None,None,,1432.406695173122,None,8.85,1433.4182872762904,None,,,,,,,002,001,2022_Mar_30_1521,2-25_cond_decay,2021.2.3,166.63046274489258,
,,,,2,0,2,0,2,0,2,0,,,,,,,,,,,,,,,,,,,,,,,,,,,,,,,,,,,,,,,,,,,,,002,001,2022_Mar_30_1521,2-25_cond_decay,2021.2.3,166.63046274489258,
left,1.0,0.75,1,2,0,2,0,3,0,3,0,0,0,0,8,,,,,,,,,1434.4203083040193,None,1434.4203083040193,None,1434.4203083040193,None,5s,1445.9582412941381,1446.9586530542,1446.9467037809081,None,1447.9464268302545,1451.7957635358907,1447.9464268302545,1451.7957635358907,1451.7957635358907,None,1451.7957635358907,None,space,0.5663025979883969,1451.7957635358907,None,3.8487,1452.3829023120925,None,,,,,,,002,001,2022_Mar_30_1521,2-25_cond_decay,2021.2.3,166.63046274489258,
left,0.75,1.0,0,2,0,2,0,3,0,3,0,0,1,1,2,,,,,,,,,,,,,,,5s,1453.3833313202485,1454.3835150850937,1454.3767834710889,None,1455.376858817879,1459.6130600320175,1455.376858817879,1459.6130600320175,1459.6077596852556,None,1459.6077596852556,None,space,0.43431526981294155,1459.6077596852556,None,4.2318,1460.0547842378728,None,,,,,,,002,001,2022_Mar_30_1521,2-25_cond_decay,2021.2.3,166.63046274489258,
left,0.75,1.0,0,2,0,2,0,3,0,3,0,0,2,2,3,,,,,,,,,,,,,,,5s,1461.055558972992,1462.055999066215,1462.0493634701706,None,1463.04963631602,1465.916247810237,1463.04963631602,1465.916247810237,1465.916247810237,None,1465.916247810237,None,None,,1465.916247810237,None,2.8657,1466.9272099211812,None,,,,,,,002,001,2022_Mar_30_1521,2-25_cond_decay,2021.2.3,166.63046274489258,
right,0.75,1.0,1,2,0,2,0,3,0,3,0,0,3,3,9,,,,,,,,,,,,,,,5s,1467.9266728772782,1468.9279331332073,1468.9222226538695,None,1469.9221327118576,1474.4251768500544,1469.9221327118576,1474.4251768500544,1474.4251768500544,None,1474.4251768500544,None,None,,1474.4251768500544,None,4.5009,1475.4304003953002,None,,,,,,,002,001,2022_Mar_30_1521,2-25_cond_decay,2021.2.3,166.63046274489258,
right,1.0,0.75,0,2,0,2,0,3,0,3,0,0,4,4,5,,,,,,,,,,,,,,,5s,1476.4315845491365,1477.4308357741684,1477.4250565581024,None,1478.4249013992958,1483.3159596081823,1478.4249013992958,1483.3159596081823,1483.3159596081823,None,1483.3159596081823,None,space,0.36611942388117313,1483.3159596081823,None,4.8892,1483.7031114669517,None,,,,,,,002,001,2022_Mar_30_1521,2-25_cond_decay,2021.2.3,166.63046274489258,
left,1.0,0.75,1,2,0,2,0,3,0,3,0,0,5,5,7,,,,,,,,,,,,,,,5s,1484.7023650002666,1485.703648168128,1485.6980796819553,None,1486.6972876889631,1487.5277266539633,1486.6972876889631,1487.5277266539633,1487.5224187392741,1488.5218946300447,1487.5224187392741,1488.5218946300447,None,,1487.5224187392741,1488.5218946300447,0.8284,1488.5387858282775,None,,,,,,,002,001,2022_Mar_30_1521,2-25_cond_decay,2021.2.3,166.63046274489258,
left,0.75,1.0,0,2,0,2,0,3,0,3,0,0,6,6,0,,,,,,,,,,,,,,,5s,1489.5339578189887,1490.534525372088,1490.5278522032313,None,1491.5284099131823,1493.3265053262003,1491.5284099131823,1493.3265053262003,1493.3202478522435,None,1493.3202478522435,None,space,0.553773298393935,1493.3202478522435,None,1.7895,1493.8967128600925,None,,,,,,,002,001,2022_Mar_30_1521,2-25_cond_decay,2021.2.3,166.63046274489258,
right,1.0,0.75,0,2,0,2,0,3,0,3,0,0,7,7,6,,,,,,,,,,,,,,,5s,1494.9020895790309,1495.9035724028945,1495.8980140108615,None,1496.8980229250155,1501.5705544911325,1496.8980229250155,1501.5705544911325,1501.5705544911325,None,1501.5705544911325,None,None,,1501.5705544911325,None,4.6727,1502.5810934188776,None,,,,,,,002,001,2022_Mar_30_1521,2-25_cond_decay,2021.2.3,166.63046274489258,
right,1.0,0.75,0,2,0,2,0,3,0,3,0,0,8,8,1,,,,,,,,,,,,,,,5s,1503.5761490482837,1504.576074148994,1504.5703637101687,None,1505.570485083852,1508.21846194705,1505.570485083852,1508.21846194705,1508.2131708171219,None,1508.2131708171219,None,None,,1508.2131708171219,None,2.6434,1509.2177465339191,None,,,,,,,002,001,2022_Mar_30_1521,2-25_cond_decay,2021.2.3,166.63046274489258,
right,1.0,0.75,0,2,0,2,0,3,0,3,0,0,9,9,4,,,,,,,,,,,,,,,5s,1510.2182297012769,1511.2191112400033,1511.2122781178914,None,1512.2122825519182,1513.769690032117,1512.2122825519182,1513.769690032117,1513.7632027510554,None,1513.7632027510554,None,space,0.3588182097300887,1513.7632027510554,None,1.5489,1514.1451129699126,None,,,,,,,002,001,2022_Mar_30_1521,2-25_cond_decay,2021.2.3,166.63046274489258,
right,0.75,1.0,1,2,0,2,0,3,0,3,0,1,0,10,9,,,,,,,,,,,,,,,5s,1515.1459405599162,1516.1461877850816,1516.1401479071938,None,1517.1397112929262,1521.3503295201808,1517.1397112929262,1521.3503295201808,1521.3438954600133,None,1521.3438954600133,None,space,0.7861420949921012,1521.3438954600133,None,4.2014,1522.1462875152938,None,,,,,,,002,001,2022_Mar_30_1521,2-25_cond_decay,2021.2.3,166.63046274489258,
left,0.75,1.0,0,2,0,2,0,3,0,3,0,1,1,11,3,,,,,,,,,,,,,,,5s,1523.1500990521163,1524.1515389392152,1524.1456099040806,None,1525.1460087951273,1528.1681385920383,1525.1460087951273,1528.1681385920383,1528.162753737066,None,1528.162753737066,None,space,0.40732866805046797,1528.162753737066,None,3.0127,1528.5802802131511,None,,,,,,,002,001,2022_Mar_30_1521,2-25_cond_decay,2021.2.3,166.63046274489258,
right,1.0,0.75,0,2,0,2,0,3,0,3,0,1,2,12,5,,,,,,,,,,,,,,,5s,1529.5863701072522,1530.5883381101303,1530.5816612332128,None,1531.5818438138813,1536.5094947470352,1531.5818438138813,1536.5094947470352,1536.5094947470352,None,1536.5094947470352,None,None,,1536.5094947470352,None,4.9276,1537.519762297161,None,,,,,,,002,001,2022_Mar_30_1521,2-25_cond_decay,2021.2.3,166.63046274489258,
left,1.0,0.75,1,2,0,2,0,3,0,3,0,1,3,13,7,,,,,,,,,,,,,,,5s,1538.5201804111712,1539.5208671139553,1539.515140058007,None,1540.5149925691076,1542.9389981268905,1540.5149925691076,1542.9389981268905,1542.9335960592143,1543.9330307561904,1542.9335960592143,1543.9330307561904,None,,1542.9335960592143,1543.9330307561904,2.4209,1543.9440060248598,None,,,,,,,002,001,2022_Mar_30_1521,2-25_cond_decay,2021.2.3,166.63046274489258,
right,1.0,0.75,0,2,0,2,0,3,0,3,0,1,4,14,6,,,,,,,,,,,,,,,5s,1544.950566269923,1545.9510531839915,1545.9453922482207,None,1546.9451532340609,1550.8286263300106,1546.9451532340609,1550.8286263300106,1550.8231373652816,None,1550.8231373652816,None,None,,1550.8231373652816,None,3.8739,1551.828458681237,None,,,,,,,002,001,2022_Mar_30_1521,2-25_cond_decay,2021.2.3,166.63046274489258,
left,0.75,1.0,0,2,0,2,0,3,0,3,0,1,5,15,2,,,,,,,,,,,,,,,5s,1552.835043313913,1553.8361901901662,1553.8305768310092,None,1554.8298367829993,1556.8770262389444,1554.8298367829993,1556.8770262389444,1556.8706866060384,None,1556.8706866060384,None,space,0.4194072843529284,1556.8706866060384,None,2.0412,1557.307522119023,None,,,,,,,002,001,2022_Mar_30_1521,2-25_cond_decay,2021.2.3,166.63046274489258,
right,1.0,0.75,0,2,0,2,0,3,0,3,0,1,6,16,4,,,,,,,,,,,,,,,5s,1558.308157572057,1559.3093832898885,1559.3025918742642,None,1560.3031781860627,1564.2646617968567,1560.3031781860627,1564.2646617968567,1564.259343712125,None,1564.259343712125,None,None,,1564.259343712125,None,3.9529,1565.271116185002,None,,,,,,,002,001,2022_Mar_30_1521,2-25_cond_decay,2021.2.3,166.63046274489258,
left,0.75,1.0,0,2,0,2,0,3,0,3,0,1,7,17,0,,,,,,,,,,,,,,,5s,1566.271346049849,1567.2720813769847,1567.2665332439356,None,1568.2661143112928,1570.3021919522434,1568.2661143112928,1570.3021919522434,1570.2968726651743,None,1570.2968726651743,None,space,0.33722778083756566,1570.2968726651743,None,2.035,1570.6526175648905,None,,,,,,,002,001,2022_Mar_30_1521,2-25_cond_decay,2021.2.3,166.63046274489258,
left,0.75,1.0,0,2,0,2,0,3,0,3,0,1,8,18,8,,,,,,,,,,,,,,,5s,1571.6477729859762,1572.6479979990982,1572.642328812275,None,1573.6418232838623,1578.4717498961836,1573.6418232838623,1578.4717498961836,1578.4664411759004,None,1578.4664411759004,None,space,0.3676229319535196,1578.4664411759004,None,4.8265,1578.8464167951606,None,,,,,,,002,001,2022_Mar_30_1521,2-25_cond_decay,2021.2.3,166.63046274489258,
right,1.0,0.75,0,2,0,2,0,3,0,3,0,1,9,19,1,,,,,,,,,,,,,,,5s,1579.8530830638483,1580.8543958542868,1580.8477570558898,None,1581.8477372271009,1585.2543185539544,1581.8477372271009,1585.2543185539544,1585.2543185539544,None,1585.2543185539544,None,None,,1585.2543185539544,None,3.4052,1586.2645328342915,None,,,,,,,002,001,2022_Mar_30_1521,2-25_cond_decay,2021.2.3,166.63046274489258,
,,,,2,0,2,0,3,0,3,0,,,,,,,,,,,,,,,,,,,,,,,,,,,,,,,,,,,,,,,,,,,,,002,001,2022_Mar_30_1521,2-25_cond_decay,2021.2.3,166.63046274489258,
,,,,2,0,2,0,,,,,,,,,,,,,,,,,,,,,,,,,,,,,,,,,,,,,,,,,,,1587.2663338328712,None,1587.2663338328712,None,1587.2663338328712,None,002,001,2022_Mar_30_1521,2-25_cond_decay,2021.2.3,166.63046274489258,
left,0.75,1.0,0,3,0,3,0,0,0,0,0,0,0,0,0,,,,,,,,,1592.2703698161058,None,1592.2703698161058,None,1592.2703698161058,None,1s,1598.0828066403046,1599.0836912621744,1599.0721299992874,None,1600.0715080830269,1600.3806039262563,1600.0715080830269,1600.3806039262563,1600.3806039262563,None,1600.3806039262563,None,None,,1600.3806039262563,None,0.3087,1601.3858941532671,None,,,,,,,002,001,2022_Mar_30_1521,2-25_cond_decay,2021.2.3,166.63046274489258,
right,1.0,0.75,0,3,0,3,0,0,0,0,0,0,1,1,9,,,,,,,,,,,,,,,1s,1602.3915569670498,1603.3926019161008,1603.3865782371722,None,1604.3867746489123,1605.1264771539718,1604.3867746489123,1605.1264771539718,1605.1264771539718,None,1605.1264771539718,None,space,0.18760813400149345,1605.1264771539718,None,0.7365,1605.3308410751633,None,,,,,,,002,001,2022_Mar_30_1521,2-25_cond_decay,2021.2.3,166.63046274489258,
right,1.0,0.75,0,3,0,3,0,0,0,0,0,0,2,2,4,,,,,,,,,,,,,,,1s,1606.3264164649881,1607.326833047904,1607.3200130090117,None,1608.3199719330296,1608.7622049930505,1608.3199719330296,1608.7622049930505,1608.756817471236,None,1608.756817471236,None,space,0.2613222897052765,1608.756817471236,None,0.4375,1609.0407094922848,None,,,,,,,002,001,2022_Mar_30_1521,2-25_cond_decay,2021.2.3,166.63046274489258,
right,0.75,1.0,1,3,0,3,0,0,0,0,0,0,3,3,2,,,,,,,,,,,,,,,1s,1610.0414172932506,1611.0412538042292,1611.0353027060628,None,1612.0349813541397,1612.979699268937,1612.0349813541397,1612.979699268937,1612.9732720949687,None,1612.9732720949687,None,space,0.26875228714197874,1612.9732720949687,None,0.9367,1613.2596074771136,None,,,,,,,002,001,2022_Mar_30_1521,2-25_cond_decay,2021.2.3,166.63046274489258,
left,0.75,1.0,0,3,0,3,0,0,0,0,0,0,4,4,6,,,,,,,,,,,,,,,1s,1614.2642453601584,1615.2655458413064,1615.259812465869,None,1616.2593781189062,1616.489724186249,1616.2593781189062,1616.489724186249,1616.489724186249,None,1616.489724186249,None,space,0.4803616520948708,1616.489724186249,None,0.2297,1616.9869363652542,None,,,,,,,002,001,2022_Mar_30_1521,2-25_cond_decay,2021.2.3,166.63046274489258,
