attn_cue,left_ob,right_ob,congruent,runs.thisRepN,runs.thisTrialN,runs.thisN,runs.thisIndex,blocks.thisRepN,blocks.thisTrialN,blocks.thisN,blocks.thisIndex,trials.thisRepN,trials.thisTrialN,trials.thisN,trials.thisIndex,welcome.started,welcome.stopped,text_2.started,text_2.stopped,init_key_resp.keys,init_key_resp.rt,init_key_resp.started,init_key_resp.stopped,text_3.started,text_3.stopped,text_4.started,text_4.stopped,text_5.started,text_5.stopped,block_num,texter.started,texter.stopped,cross.started,cross.stopped,left_star.started,left_star.stopped,right_star.started,right_star.stopped,left_2.started,left_2.stopped,right_2.started,right_2.stopped,key_resp.keys,key_resp.rt,key_resp.started,key_resp.stopped,Rand Tim,text.started,text.stopped,end.started,end.stopped,text_6.started,text_6.stopped,text_7.started,text_7.stopped,participant,session,date,expName,psychopyVersion,frameRate,
,,,,,,,,,,,,,,,,19.621834177989513,None,19.621834177989513,None,space,7.413011572964024,19.621834177989513,None,,,,,,,,,,,,,,,,,,,,,,,,,,,,,,,,,DEC009,001,2022_Jul_05_1518,2-25_cond_decay_EYE-try,2021.2.3,166.04517344565264,
left,0.75,1.0,0,0,0,0,0,0,0,0,0,0,0,0,0,,,,,,,,,27.059237623994704,None,27.059237623994704,None,27.059237623994704,None,3s,29.894822033995297,30.895515276992228,30.883303099952172,None,31.883185905986466,34.0353515589959,31.883185905986466,34.0353515589959,34.0353515589959,None,34.0353515589959,None,space,0.631496642017737,34.0353515589959,None,2.1524,34.80317181296414,None,,,,,,,DEC009,001,2022_Jul_05_1518,2-25_cond_decay_EYE-try,2021.2.3,166.04517344565264,
right,0.75,1.0,1,0,0,0,0,0,0,0,0,0,1,1,7,,,,,,,,,,,,,,,3s,36.23404708597809,37.235481282987166,37.22871655895142,None,38.22876176296268,38.8998694740003,38.22876176296268,38.8998694740003,38.89446478098398,None,38.89446478098398,None,space,0.5803788300254382,38.89446478098398,None,0.663,39.59702197799925,None,,,,,,,DEC009,001,2022_Jul_05_1518,2-25_cond_decay_EYE-try,2021.2.3,166.04517344565264,
right,1.0,0.75,0,0,0,0,0,0,0,0,0,0,2,2,9,,,,,,,,,,,,,,,3s,41.02262499695644,42.02247281098971,42.01672076800605,None,43.01650373800658,45.530662620963994,43.01650373800658,45.530662620963994,45.52423081896268,None,45.52423081896268,None,space,0.5266530649969354,45.52423081896268,None,2.5056,46.17299448698759,None,,,,,,,DEC009,001,2022_Jul_05_1518,2-25_cond_decay_EYE-try,2021.2.3,166.04517344565264,
right,1.0,0.75,0,0,0,0,0,0,0,0,0,0,3,3,2,,,,,,,,,,,,,,,3s,47.603594119951595,48.60452147695469,48.598910317989066,None,49.59794030000921,49.7914305459708,49.59794030000921,49.7914305459708,49.7848286019871,None,49.7848286019871,None,space,0.5940215360024013,49.7848286019871,None,0.1839,50.50005463795969,None,,,,,,,DEC009,001,2022_Jul_05_1518,2-25_cond_decay_EYE-try,2021.2.3,166.04517344565264,
right,1.0,0.75,0,0,0,0,0,0,0,0,0,0,4,4,4,,,,,,,,,,,,,,,3s,51.93087277695304,52.93142511998303,52.92586144595407,None,53.92526299797464,54.78002668300178,53.92526299797464,54.78002668300178,54.78002668300178,None,54.78002668300178,None,space,0.5028204889968038,54.78002668300178,None,0.8547,55.403146692959126,None,,,,,,,DEC009,001,2022_Jul_05_1518,2-25_cond_decay_EYE-try,2021.2.3,166.04517344565264,
left,0.75,1.0,0,0,0,0,0,0,0,0,0,0,5,5,6,,,,,,,,,,,,,,,3s,56.83402030199068,57.83449508197373,57.828873575956095,None,58.82829545100685,60.53745662199799,58.82829545100685,60.53745662199799,60.530795175989624,None,60.530795175989624,None,space,0.5200026099919342,60.530795175989624,None,1.6982,61.17331123200711,None,,,,,,,DEC009,001,2022_Jul_05_1518,2-25_cond_decay_EYE-try,2021.2.3,166.04517344565264,
left,0.75,1.0,0,0,0,0,0,0,0,0,0,0,6,6,8,,,,,,,,,,,,,,,3s,62.602769382996485,63.60466141300276,63.5917569079902,None,64.59208447195124,65.04059379000682,64.59208447195124,65.04059379000682,65.04059379000682,None,65.04059379000682,None,space,0.46625691797817126,65.04059379000682,None,0.4463,65.62700007698731,None,,,,,,,DEC009,001,2022_Jul_05_1518,2-25_cond_decay_EYE-try,2021.2.3,166.04517344565264,
left,1.0,0.75,1,0,0,0,0,0,0,0,0,0,7,7,5,,,,,,,,,,,,,,,3s,67.06351208995329,68.06514902296476,68.05239795596572,None,69.05269840097753,70.07724312698701,69.05269840097753,70.07724312698701,70.07724312698701,None,70.07724312698701,None,space,0.4695962899713777,70.07724312698701,None,1.0206,70.66972810495645,None,,,,,,,DEC009,001,2022_Jul_05_1518,2-25_cond_decay_EYE-try,2021.2.3,166.04517344565264,
right,1.0,0.75,0,0,0,0,0,0,0,0,0,0,8,8,3,,,,,,,,,,,,,,,3s,72.11255965498276,73.1131642749533,73.10749040998053,None,74.10686778498348,77.02886579500046,74.10686778498348,77.02886579500046,77.02886579500046,None,77.02886579500046,None,space,0.3979804219561629,77.02886579500046,None,2.9169,77.54824143997394,None,,,,,,,DEC009,001,2022_Jul_05_1518,2-25_cond_decay_EYE-try,2021.2.3,166.04517344565264,
left,0.75,1.0,0,0,0,0,0,0,0,0,0,0,9,9,1,,,,,,,,,,,,,,,3s,78.9849755379837,79.98558003100334,79.9737353749806,None,80.97342638799455,83.53706690395484,80.97342638799455,83.53706690395484,83.53706690395484,None,83.53706690395484,None,space,0.3698030639789067,83.53706690395484,None,2.5598,84.02774580597179,None,,,,,,,DEC009,001,2022_Jul_05_1518,2-25_cond_decay_EYE-try,2021.2.3,166.04517344565264,
left,1.0,0.75,1,0,0,0,0,0,0,0,0,1,0,10,5,,,,,,,,,,,,,,,3s,85.4637426569825,86.4644151829998,86.45279695198406,None,87.45236762496643,89.85285245900741,87.45236762496643,89.85285245900741,89.85285245900741,None,89.85285245900741,None,space,0.3739378660102375,89.85285245900741,None,2.4002,90.34819868195336,None,,,,,,,DEC009,001,2022_Jul_05_1518,2-25_cond_decay_EYE-try,2021.2.3,166.04517344565264,
right,1.0,0.75,0,0,0,0,0,0,0,0,0,1,1,11,9,,,,,,,,,,,,,,,3s,91.78413968300447,92.78580626298208,92.78006505797384,None,93.78012343897717,96.43312230397714,93.78012343897717,96.43312230397714,96.42656204797095,None,96.42656204797095,None,space,0.4322207940276712,96.42656204797095,None,2.6447,96.98546679795254,None,,,,,,,DEC009,001,2022_Jul_05_1518,2-25_cond_decay_EYE-try,2021.2.3,166.04517344565264,
left,0.75,1.0,0,0,0,0,0,0,0,0,0,1,2,12,1,,,,,,,,,,,,,,,3s,98.42100031097652,99.42258082597982,99.4158558039926,None,100.41596911899978,102.64612550195307,100.41596911899978,102.64612550195307,102.63934955297736,None,102.63934955297736,None,space,0.4434317569830455,102.63934955297736,None,2.2196,103.20823512395145,None,,,,,,,DEC009,001,2022_Jul_05_1518,2-25_cond_decay_EYE-try,2021.2.3,166.04517344565264,
right,0.75,1.0,1,0,0,0,0,0,0,0,0,1,3,13,7,,,,,,,,,,,,,,,3s,104.64559428300709,105.6466627990012,105.63376155798323,None,106.63377586199204,108.18527672195341,106.63377586199204,108.18527672195341,108.17983666597866,None,108.17983666597866,None,space,0.5029497540090233,108.17983666597866,None,1.5464,108.80809129599947,None,,,,,,,DEC009,001,2022_Jul_05_1518,2-25_cond_decay_EYE-try,2021.2.3,166.04517344565264,
left,0.75,1.0,0,0,0,0,0,0,0,0,0,1,4,14,0,,,,,,,,,,,,,,,3s,110.2515100580058,111.2523820779752,111.24663069896633,None,112.24603833595756,115.12371902400628,112.24603833595756,115.12371902400628,115.11709007195896,None,115.11709007195896,None,space,0.4697600520448759,115.11709007195896,None,2.869,115.71180857095169,None,,,,,,,DEC009,001,2022_Jul_05_1518,2-25_cond_decay_EYE-try,2021.2.3,166.04517344565264,
left,0.75,1.0,0,0,0,0,0,0,0,0,0,1,5,15,8,,,,,,,,,,,,,,,3s,117.14266391599085,118.14343356899917,118.13675792596769,None,119.13687885698164,121.09443045896478,119.13687885698164,121.09443045896478,121.08894826000324,None,121.08894826000324,None,space,0.5379125439794734,121.08894826000324,None,1.9543,121.74838184996042,None,,,,,,,DEC009,001,2022_Jul_05_1518,2-25_cond_decay_EYE-try,2021.2.3,166.04517344565264,
right,1.0,0.75,0,0,0,0,0,0,0,0,0,1,6,16,2,,,,,,,,,,,,,,,3s,123.18478671100456,124.18584243097575,124.17901324195554,None,125.17883116099983,125.7554448559531,125.17883116099983,125.7554448559531,125.7554448559531,None,125.7554448559531,None,space,0.5033988299546763,125.7554448559531,None,0.5762,126.38459847000195,None,,,,,,,DEC009,001,2022_Jul_05_1518,2-25_cond_decay_EYE-try,2021.2.3,166.04517344565264,
left,0.75,1.0,0,0,0,0,0,0,0,0,0,1,7,17,6,,,,,,,,,,,,,,,3s,127.82080629700795,128.82203752500936,128.809997903998,None,129.80994816496968,130.71257184498245,129.80994816496968,130.71257184498245,130.71257184498245,None,130.71257184498245,None,space,0.41024332598317415,130.71257184498245,None,0.9018,131.24454768700525,None,,,,,,,DEC009,001,2022_Jul_05_1518,2-25_cond_decay_EYE-try,2021.2.3,166.04517344565264,
right,1.0,0.75,0,0,0,0,0,0,0,0,0,1,8,18,4,,,,,,,,,,,,,,,3s,132.6809341359767,133.6822999129654,133.67007922497578,None,134.67008088796865,136.18545980297495,134.67008088796865,136.18545980297495,136.18545980297495,None,136.18545980297495,None,space,0.33734847500454634,136.18545980297495,None,1.5154,136.64510125498055,None,,,,,,,DEC009,001,2022_Jul_05_1518,2-25_cond_decay_EYE-try,2021.2.3,166.04517344565264,
right,1.0,0.75,0,0,0,0,0,0,0,0,0,1,9,19,3,,,,,,,,,,,,,,,3s,138.07610115298303,139.0764228409971,139.06971309898654,None,140.06434608699055,140.6882757479907,140.06434608699055,140.6882757479907,140.6882757479907,None,140.6882757479907,None,space,0.538586815004237,140.6882757479907,None,0.62,141.34760584996548,None,,,,,,,DEC009,001,2022_Jul_05_1518,2-25_cond_decay_EYE-try,2021.2.3,166.04517344565264,
,,,,0,0,0,0,0,0,0,0,,,,,,,,,,,,,,,,,,,,,,,,,,,,,,,,,,,,,,,,,,,,,DEC009,001,2022_Jul_05_1518,2-25_cond_decay_EYE-try,2021.2.3,166.04517344565264,
right,1.0,0.75,0,0,0,0,0,1,0,1,0,0,0,0,4,,,,,,,,,142.25031341199065,None,142.25031341199065,None,142.25031341199065,None,1s,144.1773872229969,145.1787745829788,145.1729723229655,None,146.17341021599714,147.16133277397603,146.17341021599714,147.16133277397603,147.16133277397603,None,147.16133277397603,None,space,0.33746602199971676,147.16133277397603,None,0.9854,147.6207281209645,None,,,,,,,DEC009,001,2022_Jul_05_1518,2-25_cond_decay_EYE-try,2021.2.3,166.04517344565264,
left,0.75,1.0,0,0,0,0,0,1,0,1,0,0,1,1,2,,,,,,,,,,,,,,,1s,149.0560888829641,150.05764509399887,150.05185780499596,None,151.05171304097166,151.30581671895925,151.05171304097166,151.30581671895925,151.30581671895925,None,151.30581671895925,None,space,0.5610289130127057,151.30581671895925,None,0.2521,151.98989981098566,None,,,,,,,DEC009,001,2022_Jul_05_1518,2-25_cond_decay_EYE-try,2021.2.3,166.04517344565264,
left,1.0,0.75,1,0,0,0,0,1,0,1,0,0,2,2,5,,,,,,,,,,,,,,,1s,153.41522514197277,154.41565393400379,154.40892558498308,None,155.40977515897248,156.13664098095614,155.40977515897248,156.13664098095614,156.13664098095614,None,156.13664098095614,None,space,0.41825891099870205,156.13664098095614,None,0.7263,156.67514972796198,None,,,,,,,DEC009,001,2022_Jul_05_1518,2-25_cond_decay_EYE-try,2021.2.3,166.04517344565264,
right,1.0,0.75,0,0,0,0,0,1,0,1,0,0,3,3,6,,,,,,,,,,,,,,,1s,158.111161281995,159.1121995599824,159.1066407689941,None,160.10579792497447,160.36068195098778,160.10579792497447,160.36068195098778,160.36068195098778,None,160.36068195098778,None,space,0.3541688309633173,160.36068195098778,None,0.2537,160.83807007799624,None,,,,,,,DEC009,001,2022_Jul_05_1518,2-25_cond_decay_EYE-try,2021.2.3,166.04517344565264,
right,1.0,0.75,0,0,0,0,0,1,0,1,0,0,4,4,1,,,,,,,,,,,,,,,1s,162.27621747000376,163.27635531395208,163.2694887240068,None,164.26980805397034,164.92397574195638,164.26980805397034,164.92397574195638,164.91864103998523,None,164.91864103998523,None,space,0.3721992089995183,164.91864103998523,None,0.6499,165.4134447699762,None,,,,,,,DEC009,001,2022_Jul_05_1518,2-25_cond_decay_EYE-try,2021.2.3,166.04517344565264,
right,1.0,0.75,0,0,0,0,0,1,0,1,0,0,5,5,3,,,,,,,,,,,,,,,1s,166.8384591359645,167.8394281299552,167.83371145598358,None,168.83316560595995,169.2508464109851,168.83316560595995,169.2508464109851,169.2443148989696,None,169.2443148989696,None,space,0.35854328103596345,169.2443148989696,None,0.4077,169.72306304395897,None,,,,,,,DEC009,001,2022_Jul_05_1518,2-25_cond_decay_EYE-try,2021.2.3,166.04517344565264,
right,0.75,1.0,1,0,0,0,0,1,0,1,0,0,6,6,8,,,,,,,,,,,,,,,1s,171.15286007500254,172.15453140198952,172.1488042009878,None,173.14833795896266,174.09971110499464,173.14833795896266,174.09971110499464,174.09314702497795,None,174.09314702497795,None,space,0.4376371380058117,174.09314702497795,None,0.9427,174.6572072969866,None,,,,,,,DEC009,001,2022_Jul_05_1518,2-25_cond_decay_EYE-try,2021.2.3,166.04517344565264,
right,1.0,0.75,0,0,0,0,0,1,0,1,0,0,7,7,9,,,,,,,,,,,,,,,1s,176.09299205098068,177.09348747198237,177.0877502390067,None,178.08828503795667,178.40862820995972,178.08828503795667,178.40862820995972,178.40216380695347,None,178.40216380695347,None,space,0.36069301899988204,178.40216380695347,None,0.3098,178.88741915195715,None,,,,,,,DEC009,001,2022_Jul_05_1518,2-25_cond_decay_EYE-try,2021.2.3,166.04517344565264,
left,0.75,1.0,0,0,0,0,0,1,0,1,0,0,8,8,0,,,,,,,,,,,,,,,1s,180.3225221929606,181.32425952597987,181.3175654700026,None,182.31763532699551,183.1602693729801,182.31763532699551,183.1602693729801,183.1548420919571,None,183.1548420919571,None,space,0.39208237500861287,183.1548420919571,None,0.8392,183.6689105889527,None,,,,,,,DEC009,001,2022_Jul_05_1518,2-25_cond_decay_EYE-try,2021.2.3,166.04517344565264,
left,0.75,1.0,0,0,0,0,0,1,0,1,0,0,9,9,7,,,,,,,,,,,,,,,1s,185.0983946659835,186.0995757689816,186.09383879299276,None,187.08812202099944,187.87598139798502,187.08812202099944,187.87598139798502,187.87598139798502,None,187.87598139798502,None,space,0.3988801840459928,187.87598139798502,None,0.7838,188.39591360400664,None,,,,,,,DEC009,001,2022_Jul_05_1518,2-25_cond_decay_EYE-try,2021.2.3,166.04517344565264,
right,1.0,0.75,0,0,0,0,0,1,0,1,0,1,0,10,1,,,,,,,,,,,,,,,1s,189.83139915700303,190.83284880197607,190.82085001200903,None,191.8204896739917,192.2874973680009,191.8204896739917,192.2874973680009,192.2874973680009,None,192.2874973680009,None,space,0.33929828699911013,192.2874973680009,None,0.4641,192.74683934898349,None,,,,,,,DEC009,001,2022_Jul_05_1518,2-25_cond_decay_EYE-try,2021.2.3,166.04517344565264,
left,0.75,1.0,0,0,0,0,0,1,0,1,0,1,1,11,4,,,,,,,,,,,,,,,1s,194.18373675399926,195.18439323198982,195.17882019496756,None,196.17835046397522,196.88716369098984,196.17835046397522,196.88716369098984,196.88716369098984,None,196.88716369098984,None,space,0.37169751699548215,196.88716369098984,None,0.7081,197.38384351297282,None,,,,,,,DEC009,001,2022_Jul_05_1518,2-25_cond_decay_EYE-try,2021.2.3,166.04517344565264,
left,0.75,1.0,0,0,0,0,0,1,0,1,0,1,2,12,0,,,,,,,,,,,,,,,1s,198.8195980580058,199.8207365819835,199.8152425320004,None,200.81433290900895,201.6333177879569,200.81433290900895,201.6333177879569,201.6333177879569,None,201.6333177879569,None,space,0.34548140299739316,201.6333177879569,None,0.8165,202.0981638659723,None,,,,,,,DEC009,001,2022_Jul_05_1518,2-25_cond_decay_EYE-try,2021.2.3,166.04517344565264,
left,0.75,1.0,0,0,0,0,0,1,0,1,0,1,3,13,7,,,,,,,,,,,,,,,1s,203.5299587789923,204.5295421789633,204.52371460595168,None,205.52376557397656,206.12885155098047,205.52376557397656,206.12885155098047,206.12234139000066,None,206.12234139000066,None,space,0.5125186869991012,206.12234139000066,None,0.5965,206.75923800299643,None,,,,,,,DEC009,001,2022_Jul_05_1518,2-25_cond_decay_EYE-try,2021.2.3,166.04517344565264,
right,1.0,0.75,0,0,0,0,0,1,0,1,0,1,4,14,9,,,,,,,,,,,,,,,1s,208.20103363896487,209.20291756896768,209.19606308697257,None,210.19688234396745,210.94155180297093,210.19688234396745,210.94155180297093,210.94155180297093,None,210.94155180297093,None,space,0.3573263459838927,210.94155180297093,None,0.7455,211.41901419195347,None,,,,,,,DEC009,001,2022_Jul_05_1518,2-25_cond_decay_EYE-try,2021.2.3,166.04517344565264,
right,1.0,0.75,0,0,0,0,0,1,0,1,0,1,5,15,3,,,,,,,,,,,,,,,1s,212.8514719629893,213.85141997796018,213.84455321298447,None,214.84510720096296,215.24532242497662,214.84510720096296,215.24532242497662,215.24532242497662,None,215.24532242497662,None,space,0.421555841981899,215.24532242497662,None,0.3976,215.7887331979582,None,,,,,,,DEC009,001,2022_Jul_05_1518,2-25_cond_decay_EYE-try,2021.2.3,166.04517344565264,
right,1.0,0.75,0,0,0,0,0,1,0,1,0,1,6,16,6,,,,,,,,,,,,,,,1s,217.22507276799297,218.2264702550019,218.21434908598894,None,219.21443537197774,220.03288750199135,219.21443537197774,220.03288750199135,220.03288750199135,None,220.03288750199135,None,space,0.3699299049912952,220.03288750199135,None,0.8183,220.52225071197608,None,,,,,,,DEC009,001,2022_Jul_05_1518,2-25_cond_decay_EYE-try,2021.2.3,166.04517344565264,
left,1.0,0.75,1,0,0,0,0,1,0,1,0,1,7,17,5,,,,,,,,,,,,,,,1s,221.95850359799806,222.96047684998484,222.94764480896993,None,223.94770063698525,224.30581546400208,223.94770063698525,224.30581546400208,224.30581546400208,None,224.30581546400208,None,space,0.42498522996902466,224.30581546400208,None,0.3556,224.85689856100362,None,,,,,,,DEC009,001,2022_Jul_05_1518,2-25_cond_decay_EYE-try,2021.2.3,166.04517344565264,
left,0.75,1.0,0,0,0,0,0,1,0,1,0,1,8,18,2,,,,,,,,,,,,,,,1s,226.2918174659717,227.2934983589803,227.28677172295284,None,228.28080291399965,228.76565686095273,228.28080291399965,228.76565686095273,228.77182993898168,None,228.77182993898168,None,space,0.7110382579849102,228.77182993898168,None,0.4862,229.60677062399918,None,,,,,,,DEC009,001,2022_Jul_05_1518,2-25_cond_decay_EYE-try,2021.2.3,166.04517344565264,
right,0.75,1.0,1,0,0,0,0,1,0,1,0,1,9,19,8,,,,,,,,,,,,,,,1s,231.04363816097612,232.0443614529795,232.03864227596205,None,233.03876913397107,233.68101778096752,233.03876913397107,233.68101778096752,233.68101778096752,None,233.68101778096752,None,space,0.44983979797689244,233.68101778096752,None,0.6388,234.25649680598872,None,,,,,,,DEC009,001,2022_Jul_05_1518,2-25_cond_decay_EYE-try,2021.2.3,166.04517344565264,
,,,,0,0,0,0,1,0,1,0,,,,,,,,,,,,,,,,,,,,,,,,,,,,,,,,,,,,,,,,,,,,,DEC009,001,2022_Jul_05_1518,2-25_cond_decay_EYE-try,2021.2.3,166.04517344565264,
left,1.0,0.75,1,0,0,0,0,2,0,2,0,0,0,0,8,,,,,,,,,235.16495714598568,None,235.16495714598568,None,235.16495714598568,None,10s,238.80079331196612,239.80190633697202,239.79613074398367,None,240.79659946000902,241.17660571297165,240.79659946000902,241.17660571297165,241.17026495398022,None,241.17026495398022,None,space,0.3925959569751285,241.17026495398022,None,0.373,241.68705218599644,None,,,,,,,DEC009,001,2022_Jul_05_1518,2-25_cond_decay_EYE-try,2021.2.3,166.04517344565264,
left,1.0,0.75,1,0,0,0,0,2,0,2,0,0,1,1,0,,,,,,,,,,,,,,,10s,243.12819407996722,244.12992573698284,244.1169413169846,None,245.1177862029872,248.57747215998825,245.1177862029872,248.57747215998825,248.57747215998825,None,248.57747215998825,None,space,0.45739010197576135,248.57747215998825,None,3.4564,249.15868041000795,None,,,,,,,DEC009,001,2022_Jul_05_1518,2-25_cond_decay_EYE-try,2021.2.3,166.04517344565264,
right,0.75,1.0,1,0,0,0,0,2,0,2,0,0,2,2,7,,,,,,,,,,,,,,,10s,250.59455153299496,251.5956933950074,251.5899156240048,None,252.5896652379888,258.48692167695845,252.5896652379888,258.48692167695845,258.48692167695845,None,258.48692167695845,None,space,0.37990132201230153,258.48692167695845,None,5.8967,258.98832466598833,None,,,,,,,DEC009,001,2022_Jul_05_1518,2-25_cond_decay_EYE-try,2021.2.3,166.04517344565264,
right,1.0,0.75,0,0,0,0,0,2,0,2,0,0,3,3,6,,,,,,,,,,,,,,,10s,260.41996659798315,261.42023723595776,261.41363081597956,None,262.41445318597835,265.1955585879623,262.41445318597835,265.1955585879623,265.1902253369917,None,265.1902253369917,None,space,0.49264322000090033,265.1902253369917,None,2.7761,265.80665207799757,None,,,,,,,DEC009,001,2022_Jul_05_1518,2-25_cond_decay_EYE-try,2021.2.3,166.04517344565264,
right,1.0,0.75,0,0,0,0,0,2,0,2,0,0,4,4,3,,,,,,,,,,,,,,,10s,267.2492334099952,268.2502750440035,268.2382263339823,None,269.23792798799695,278.40732330299215,269.23792798799695,278.40732330299215,278.40732330299215,None,278.40732330299215,None,None,,278.40732330299215,None,9.1661,279.52921168500325,None,,,,,,,DEC009,001,2022_Jul_05_1518,2-25_cond_decay_EYE-try,2021.2.3,166.04517344565264,
right,1.0,0.75,0,0,0,0,0,2,0,2,0,0,5,5,2,,,,,,,,,,,,,,,10s,280.95798834599555,281.9591914889752,281.9469932540087,None,282.9469295979943,286.67451999895275,282.9469295979943,286.67451999895275,286.67451999895275,None,286.67451999895275,None,space,0.4163534539984539,286.67451999895275,None,3.7256,287.219226599962,None,,,,,,,DEC009,001,2022_Jul_05_1518,2-25_cond_decay_EYE-try,2021.2.3,166.04517344565264,
right,1.0,0.75,0,0,0,0,0,2,0,2,0,0,6,6,5,,,,,,,,,,,,,,,10s,288.6429435029859,289.6442055759835,289.6375286249677,None,290.63748652499635,293.85490254097385,290.63748652499635,293.85490254097385,293.848373124958,None,293.848373124958,None,space,0.42643013200722635,293.848373124958,None,3.2105,294.4005401119939,None,,,,,,,DEC009,001,2022_Jul_05_1518,2-25_cond_decay_EYE-try,2021.2.3,166.04517344565264,
left,0.75,1.0,0,0,0,0,0,2,0,2,0,0,7,7,1,,,,,,,,,,,,,,,10s,295.83639252296416,296.8374148319708,296.83182785398094,None,297.8253522949526,305.8739438239718,297.8253522949526,305.8739438239718,305.8739438239718,None,305.8739438239718,None,space,0.4809294040314853,305.8739438239718,None,8.0472,306.4785774530028,None,,,,,,,DEC009,001,2022_Jul_05_1518,2-25_cond_decay_EYE-try,2021.2.3,166.04517344565264,
left,0.75,1.0,0,0,0,0,0,2,0,2,0,0,8,8,4,,,,,,,,,,,,,,,10s,307.92114884295734,308.9230063809664,308.9101042129914,None,309.91082972299773,317.8683951649582,309.91082972299773,317.8683951649582,317.8683951649582,None,317.8683951649582,None,space,0.4784889209549874,317.8683951649582,None,7.9535,318.46670914895367,None,,,,,,,DEC009,001,2022_Jul_05_1518,2-25_cond_decay_EYE-try,2021.2.3,166.04517344565264,
left,0.75,1.0,0,0,0,0,0,2,0,2,0,0,9,9,9,,,,,,,,,,,,,,,10s,319.8918299319921,320.89246478595305,320.885664595,None,321.88609196798643,329.8115637569572,321.88609196798643,329.8115637569572,329.80590305797523,None,329.80590305797523,None,None,,329.80590305797523,None,7.9181,330.9215737140039,None,,,,,,,DEC009,001,2022_Jul_05_1518,2-25_cond_decay_EYE-try,2021.2.3,166.04517344565264,
right,1.0,0.75,0,0,0,0,0,2,0,2,0,1,0,10,6,,,,,,,,,,,,,,,10s,332.35773831099505,333.3584289069986,333.35268625995377,None,334.3521298469859,341.2915173599613,334.3521298469859,341.2915173599613,341.2850194829516,None,341.2850194829516,None,space,0.3418602120364085,341.2850194829516,None,6.9293,341.75685996899847,None,,,,,,,DEC009,001,2022_Jul_05_1518,2-25_cond_decay_EYE-try,2021.2.3,166.04517344565264,
right,1.0,0.75,0,0,0,0,0,2,0,2,0,1,1,11,5,,,,,,,,,,,,,,,10s,343.18755619297735,344.1892858679639,344.1826574319857,None,345.18231168499915,345.70903035998344,345.18231168499915,345.70903035998344,345.70241369795986,None,345.70241369795986,None,space,0.5244712110143155,345.70241369795986,None,0.5183,346.3530151269515,None,,,,,,,DEC009,001,2022_Jul_05_1518,2-25_cond_decay_EYE-try,2021.2.3,166.04517344565264,
left,0.75,1.0,0,0,0,0,0,2,0,2,0,1,2,12,4,,,,,,,,,,,,,,,10s,347.7877099659527,348.7891852579778,348.7772727609845,None,349.78326373698656,351.3402159239631,349.78326373698656,351.3402159239631,351.3402159239631,None,351.3402159239631,None,space,0.40659016295103356,351.3402159239631,None,1.5572,351.87200379098067,None,,,,,,,DEC009,001,2022_Jul_05_1518,2-25_cond_decay_EYE-try,2021.2.3,166.04517344565264,
right,1.0,0.75,0,0,0,0,0,2,0,2,0,1,3,13,2,,,,,,,,,,,,,,,10s,353.31472796195885,354.3160041589872,354.3041121449787,None,355.30341144499835,361.6187535179779,355.30341144499835,361.6187535179779,361.6187535179779,None,361.6187535179779,None,space,0.5841251950478181,361.6187535179779,None,6.3139,362.32777802000055,None,,,,,,,DEC009,001,2022_Jul_05_1518,2-25_cond_decay_EYE-try,2021.2.3,166.04517344565264,
left,0.75,1.0,0,0,0,0,0,2,0,2,0,1,4,14,1,,,,,,,,,,,,,,,10s,363.7693319719983,364.7702846779721,364.7646032299963,None,365.76424597395817,368.50358631799463,365.76424597395817,368.50358631799463,368.50358631799463,None,368.50358631799463,None,space,0.5552096620085649,368.50358631799463,None,2.7382,369.18134263996035,None,,,,,,,DEC009,001,2022_Jul_05_1518,2-25_cond_decay_EYE-try,2021.2.3,166.04517344565264,
left,0.75,1.0,0,0,0,0,0,2,0,2,0,1,5,15,8,,,,,,,,,,,,,,,10s,370.61109205696266,371.6130268269917,371.60632403800264,None,372.60686295497,377.98056623898447,372.60686295497,377.98056623898447,377.9752027319628,None,377.9752027319628,None,space,0.4756786059588194,377.9752027319628,None,5.3655,378.5747490719659,None,,,,,,,DEC009,001,2022_Jul_05_1518,2-25_cond_decay_EYE-try,2021.2.3,166.04517344565264,
right,1.0,0.75,0,0,0,0,0,2,0,2,0,1,6,16,3,,,,,,,,,,,,,,,10s,380.0178682679543,381.0185279909638,381.01298851298634,None,382.01274235296296,391.94625893299235,382.01274235296296,391.94625893299235,391.94625893299235,None,391.94625893299235,None,space,0.344603524019476,391.94625893299235,None,9.9326,392.4116367249517,None,,,,,,,DEC009,001,2022_Jul_05_1518,2-25_cond_decay_EYE-try,2021.2.3,166.04517344565264,
right,0.75,1.0,1,0,0,0,0,2,0,2,0,1,7,17,7,,,,,,,,,,,,,,,10s,393.84180401300546,394.8428377749515,394.8307159039541,None,395.83059144596336,399.36878879897995,395.83059144596336,399.36878879897995,399.36229928198736,None,399.36229928198736,None,space,0.5285294270142913,399.36229928198736,None,3.5293,400.01143579295604,None,,,,,,,DEC009,001,2022_Jul_05_1518,2-25_cond_decay_EYE-try,2021.2.3,166.04517344565264,
left,1.0,0.75,1,0,0,0,0,2,0,2,0,1,8,18,0,,,,,,,,,,,,,,,10s,401.44231798895635,402.44248851999873,402.4368022260023,409.50900731800357,403.43698656896595,408.514866181009,403.43698656896595,408.514866181009,408.514866181009,None,408.514866181009,None,None,,408.514866181009,None,5.0737,409.6289233319694,None,,,,,,,DEC009,001,2022_Jul_05_1518,2-25_cond_decay_EYE-try,2021.2.3,166.04517344565264,
left,0.75,1.0,0,0,0,0,0,2,0,2,0,1,9,19,9,,,,,,,,,,,,,,,10s,411.0592073869775,412.06102883897256,412.0543387789512,None,413.0546446669614,419.8957679079613,413.0546446669614,419.8957679079613,419.8892718079733,None,419.8892718079733,None,space,0.4815528169856407,419.8892718079733,None,6.8342,420.502047145972,None,,,,,,,DEC009,001,2022_Jul_05_1518,2-25_cond_decay_EYE-try,2021.2.3,166.04517344565264,
,,,,0,0,0,0,2,0,2,0,,,,,,,,,,,,,,,,,,,,,,,,,,,,,,,,,,,,,,,,,,,,,DEC009,001,2022_Jul_05_1518,2-25_cond_decay_EYE-try,2021.2.3,166.04517344565264,
right,0.75,1.0,1,0,0,0,0,3,0,3,0,0,0,0,9,,,,,,,,,421.405215494975,None,421.405215494975,None,421.405215494975,None,5s,424.513855194964,425.51493550796295,425.50938863196643,None,426.5090924469987,428.02395577996504,426.5090924469987,428.02395577996504,428.0185813809512,None,428.0185813809512,None,space,0.5283139619859867,428.0185813809512,None,1.5111,428.6723612099886,None,,,,,,,DEC009,001,2022_Jul_05_1518,2-25_cond_decay_EYE-try,2021.2.3,166.04517344565264,
left,0.75,1.0,0,0,0,0,0,3,0,3,0,0,1,1,8,,,,,,,,,,,,,,,5s,430.1136897179531,431.11524609598564,431.10244123998564,None,432.10288914700504,434.84883508697385,432.10288914700504,434.84883508697385,434.84883508697385,None,434.84883508697385,None,space,0.3700664920033887,434.84883508697385,None,2.7442,435.3439875689801,None,,,,,,,DEC009,001,2022_Jul_05_1518,2-25_cond_decay_EYE-try,2021.2.3,166.04517344565264,
left,0.75,1.0,0,0,0,0,0,3,0,3,0,0,2,2,5,,,,,,,,,,,,,,,5s,436.7815099869622,437.78155271697324,437.77596491295844,None,438.77572501497343,439.29112728498876,438.77572501497343,439.29112728498876,439.29112728498876,None,439.29112728498876,None,space,0.43176319100894034,439.29112728498876,None,0.5143,439.8475877379533,None,,,,,,,DEC009,001,2022_Jul_05_1518,2-25_cond_decay_EYE-try,2021.2.3,166.04517344565264,
right,1.0,0.75,0,0,0,0,0,3,0,3,0,0,3,3,2,,,,,,,,,,,,,,,5s,441.28428242896916,442.2841442899662,442.2781365229748,None,443.27293305197963,443.9759085740079,443.27293305197963,443.9759085740079,443.9759085740079,None,443.9759085740079,None,space,0.4669182489742525,443.9759085740079,None,0.7005,444.56831789796706,None,,,,,,,DEC009,001,2022_Jul_05_1518,2-25_cond_decay_EYE-try,2021.2.3,166.04517344565264,
right,1.0,0.75,0,0,0,0,0,3,0,3,0,0,4,4,0,,,,,,,,,,,,,,,5s,446.0044571659528,447.0057447569561,447.00011296896264,None,448.0001291639637,449.8408429310075,448.0001291639637,449.8408429310075,449.83447666396387,None,449.83447666396387,None,None,,449.83447666396387,None,1.8349,450.9494305739645,None,,,,,,,DEC009,001,2022_Jul_05_1518,2-25_cond_decay_EYE-try,2021.2.3,166.04517344565264,
right,1.0,0.75,0,0,0,0,0,3,0,3,0,0,5,5,1,,,,,,,,,,,,,,,5s,452.38016339798924,453.38171115197474,453.3696831599809,None,454.3693419569754,459.1814171290025,454.3693419569754,459.1814171290025,459.1814171290025,None,459.1814171290025,None,space,0.3734203079948202,459.1814171290025,None,4.8118,459.6786518069566,None,,,,,,,DEC009,001,2022_Jul_05_1518,2-25_cond_decay_EYE-try,2021.2.3,166.04517344565264,
left,1.0,0.75,1,0,0,0,0,3,0,3,0,0,6,6,3,,,,,,,,,,,,,,,5s,461.11301180697046,462.11445525300223,462.1028236770071,None,463.1023842449649,463.82378620200325,463.1023842449649,463.82378620200325,463.82378620200325,464.8234133209917,463.82378620200325,464.8234133209917,None,,463.82378620200325,464.8234133209917,0.7219,464.9433334909845,None,,,,,,,DEC009,001,2022_Jul_05_1518,2-25_cond_decay_EYE-try,2021.2.3,166.04517344565264,
right,0.75,1.0,1,0,0,0,0,3,0,3,0,0,7,7,7,,,,,,,,,,,,,,,5s,466.3738669529557,467.37483806198,467.36910833598813,None,468.3689762339927,473.18072884297,468.3689762339927,473.18072884297,473.18072884297,None,473.18072884297,None,None,,473.18072884297,None,4.812,474.29002500796923,None,,,,,,,DEC009,001,2022_Jul_05_1518,2-25_cond_decay_EYE-try,2021.2.3,166.04517344565264,
right,1.0,0.75,0,0,0,0,0,3,0,3,0,0,8,8,6,,,,,,,,,,,,,,,5s,475.7271824099589,476.72630067699356,476.72065863996977,None,477.7204558599624,478.19913461699616,477.7204558599624,478.19913461699616,478.19913461699616,None,478.19913461699616,None,space,0.3637373159872368,478.19913461699616,None,0.4769,478.68433429999277,None,,,,,,,DEC009,001,2022_Jul_05_1518,2-25_cond_decay_EYE-try,2021.2.3,166.04517344565264,
left,0.75,1.0,0,0,0,0,0,3,0,3,0,0,9,9,4,,,,,,,,,,,,,,,5s,480.1136523739551,481.1142349669826,481.10868362599285,None,482.1088380969595,485.31412519700825,482.1088380969595,485.31412519700825,485.31412519700825,None,485.31412519700825,None,space,0.41677708498900756,485.31412519700825,None,3.204,485.8520489310031,None,,,,,,,DEC009,001,2022_Jul_05_1518,2-25_cond_decay_EYE-try,2021.2.3,166.04517344565264,
left,0.75,1.0,0,0,0,0,0,3,0,3,0,1,0,10,5,,,,,,,,,,,,,,,5s,487.2891004839912,488.29069123399677,488.28381865797564,None,489.28466203599237,494.02985864295624,489.28466203599237,494.02985864295624,494.02985864295624,None,494.02985864295624,None,space,0.4290467509999871,494.02985864295624,None,4.7449,494.57994960196083,None,,,,,,,DEC009,001,2022_Jul_05_1518,2-25_cond_decay_EYE-try,2021.2.3,166.04517344565264,
left,0.75,1.0,0,0,0,0,0,3,0,3,0,1,1,11,8,,,,,,,,,,,,,,,5s,496.01032734499313,497.01095405896194,496.9992701439769,None,497.9994728579768,501.7444911969942,497.9994728579768,501.7444911969942,501.7444911969942,None,501.7444911969942,None,space,0.4504045390058309,501.7444911969942,None,3.7431,502.3189251750009,None,,,,,,,DEC009,001,2022_Jul_05_1518,2-25_cond_decay_EYE-try,2021.2.3,166.04517344565264,
right,1.0,0.75,0,0,0,0,0,3,0,3,0,1,2,12,2,,,,,,,,,,,,,,,5s,503.7612806779798,504.7622923399904,504.7563511399785,None,505.75611925695557,507.7128618459683,505.75611925695557,507.7128618459683,507.706525667978,None,507.706525667978,None,space,0.47229541500564665,507.706525667978,None,1.9499,508.3010482160025,None,,,,,,,DEC009,001,2022_Jul_05_1518,2-25_cond_decay_EYE-try,2021.2.3,166.04517344565264,
left,0.75,1.0,0,0,0,0,0,3,0,3,0,1,3,13,4,,,,,,,,,,,,,,,5s,509.73720981599763,510.73806644498836,510.7324800469796,None,511.7320372349932,515.0278376499773,511.7320372349932,515.0278376499773,515.0214268339914,None,515.0214268339914,None,space,0.5014744540094398,515.0214268339914,None,3.2866,515.6456960099749,None,,,,,,,DEC009,001,2022_Jul_05_1518,2-25_cond_decay_EYE-try,2021.2.3,166.04517344565264,
left,0.75,1.0,0,0,0,0,0,3,0,3,0,1,4,14,9,,,,,,,,,,,,,,,5s,517.0826884380076,518.0833746629651,518.0714330089977,None,519.0717183459783,521.9443155929912,519.0717183459783,521.9443155929912,521.9443155929912,None,521.9443155929912,None,None,,521.9443155929912,None,2.8705,523.0582697629579,None,,,,,,,DEC009,001,2022_Jul_05_1518,2-25_cond_decay_EYE-try,2021.2.3,166.04517344565264,
right,1.0,0.75,0,0,0,0,0,3,0,3,0,1,5,15,6,,,,,,,,,,,,,,,5s,524.4940444139647,525.4957598299952,525.4900029179989,None,526.4895403370028,531.1020810289774,526.4895403370028,531.1020810289774,531.1020810289774,None,531.1020810289774,None,space,0.3968257910455577,531.1020810289774,None,4.6129,531.6274746179697,None,,,,,,,DEC009,001,2022_Jul_05_1518,2-25_cond_decay_EYE-try,2021.2.3,166.04517344565264,
right,0.75,1.0,1,0,0,0,0,3,0,3,0,1,6,16,7,,,,,,,,,,,,,,,5s,533.0469809509814,534.0473977829679,534.0406433139578,None,535.0415355129517,535.3672053559567,535.0415355129517,535.3672053559567,535.3605809769942,None,535.3605809769942,None,space,0.43438276898814365,535.3605809769942,None,0.3168,535.9188372739591,None,,,,,,,DEC009,001,2022_Jul_05_1518,2-25_cond_decay_EYE-try,2021.2.3,166.04517344565264,
left,1.0,0.75,1,0,0,0,0,3,0,3,0,1,7,17,3,,,,,,,,,,,,,,,5s,537.360677220975,538.3627990829991,538.3496928630047,541.1139121229644,539.3505173099693,540.1142000280088,539.3505173099693,540.1142000280088,540.1142000280088,None,540.1142000280088,None,None,,540.1142000280088,None,0.7605,541.2346917889663,None,,,,,,,DEC009,001,2022_Jul_05_1518,2-25_cond_decay_EYE-try,2021.2.3,166.04517344565264,
right,1.0,0.75,0,0,0,0,0,3,0,3,0,1,8,18,1,,,,,,,,,,,,,,,5s,542.6705448349821,543.670901778969,543.6652097830083,None,544.665577903972,544.8937953859568,544.665577903972,544.8937953859568,544.8884044629522,None,544.8884044629522,None,space,0.3704797810059972,544.8884044629522,None,0.2186,545.3799847439514,None,,,,,,,DEC009,001,2022_Jul_05_1518,2-25_cond_decay_EYE-try,2021.2.3,166.04517344565264,
right,1.0,0.75,0,0,0,0,0,3,0,3,0,1,9,19,0,,,,,,,,,,,,,,,5s,546.8090734299622,547.8106624920038,547.8048090909724,None,548.804803469975,552.0107551859692,548.804803469975,552.0107551859692,552.0107551859692,None,552.0107551859692,None,space,0.41615355998510495,552.0107551859692,None,3.2049,552.5491928179981,None,,,,,,,DEC009,001,2022_Jul_05_1518,2-25_cond_decay_EYE-try,2021.2.3,166.04517344565264,
,,,,0,0,0,0,3,0,3,0,,,,,,,,,,,,,,,,,,,,,,,,,,,,,,,,,,,,,,,,,,,,,DEC009,001,2022_Jul_05_1518,2-25_cond_decay_EYE-try,2021.2.3,166.04517344565264,
,,,,0,0,0,0,,,,,,,,,,,,,,,,,,,,,,,,,,,,,,,,,,,,,,,,,,,553.4515223379713,None,553.4515223379713,None,553.4515223379713,None,DEC009,001,2022_Jul_05_1518,2-25_cond_decay_EYE-try,2021.2.3,166.04517344565264,
right,0.75,1.0,1,1,0,1,0,0,0,0,0,0,0,0,9,,,,,,,,,558.4521678179735,None,558.4521678179735,None,558.4521678179735,None,10s,569.0516846409882,570.0532423999975,570.0463353919913,None,571.0467728399672,578.1297931110021,571.0467728399672,578.1297931110021,578.1244128159597,None,578.1244128159597,None,space,0.3904960909858346,578.1244128159597,None,7.075,578.6403582890052,None,,,,,,,DEC009,001,2022_Jul_05_1518,2-25_cond_decay_EYE-try,2021.2.3,166.04517344565264,
left,0.75,1.0,0,1,0,1,0,0,0,0,0,0,1,1,7,,,,,,,,,,,,,,,10s,580.0814787559793,581.082578150963,581.0707215849543,None,582.0708635789924,583.616350930999,582.0708635789924,583.616350930999,583.616350930999,None,583.616350930999,None,space,0.4345023080240935,583.616350930999,None,1.5451,584.1721055859816,None,,,,,,,DEC009,001,2022_Jul_05_1518,2-25_cond_decay_EYE-try,2021.2.3,166.04517344565264,
right,1.0,0.75,0,1,0,1,0,0,0,0,0,0,2,2,6,,,,,,,,,,,,,,,10s,585.6099525209866,586.6100071149995,586.5980816339725,None,587.5975779959699,588.7129222929943,587.5975779959699,588.7129222929943,588.7129222929943,None,588.7129222929943,None,space,0.4099929470103234,588.7129222929943,None,1.1152,589.2450350789586,None,,,,,,,DEC009,001,2022_Jul_05_1518,2-25_cond_decay_EYE-try,2021.2.3,166.04517344565264,
left,0.75,1.0,0,1,0,1,0,0,0,0,0,0,3,3,0,,,,,,,,,,,,,,,10s,590.6819015209912,591.6832538019517,591.6703574979911,None,592.6712267649709,600.8886875569588,592.6712267649709,600.8886875569588,600.8886875569588,None,600.8886875569588,None,space,0.4101747869863175,600.8886875569588,None,8.2181,601.4203879219713,None,,,,,,,DEC009,001,2022_Jul_05_1518,2-25_cond_decay_EYE-try,2021.2.3,166.04517344565264,
left,1.0,0.75,1,1,0,1,0,0,0,0,0,0,4,4,2,,,,,,,,,,,,,,,10s,602.8575673029991,603.8579438579618,603.8461235639988,None,604.8466609099996,613.8281182789942,604.8466609099996,613.8281182789942,613.8281182789942,None,613.8281182789942,None,None,,613.8281182789942,None,8.981,614.942941649002,None,,,,,,,DEC009,001,2022_Jul_05_1518,2-25_cond_decay_EYE-try,2021.2.3,166.04517344565264,
right,1.0,0.75,0,1,0,1,0,0,0,0,0,0,5,5,1,,,,,,,,,,,,,,,10s,616.3717245529988,617.3734118959983,617.367590313952,None,618.3672961239936,628.3072028849856,618.3672961239936,628.3072028849856,628.2996702920063,None,628.2996702920063,None,space,0.4152382909669541,628.2996702920063,None,9.9292,628.8446917459951,None,,,,,,,DEC009,001,2022_Jul_05_1518,2-25_cond_decay_EYE-try,2021.2.3,166.04517344565264,
left,0.75,1.0,0,1,0,1,0,0,0,0,0,0,6,6,3,,,,,,,,,,,,,,,10s,630.2814668999636,631.2820083340048,631.2702890849905,None,632.2703384179622,637.5061407999601,632.2703384179622,637.5061407999601,637.5061407999601,None,637.5061407999601,None,None,,637.5061407999601,None,5.2346,638.6212034309865,None,,,,,,,DEC009,001,2022_Jul_05_1518,2-25_cond_decay_EYE-try,2021.2.3,166.04517344565264,
left,0.75,1.0,0,1,0,1,0,0,0,0,0,0,7,7,8,,,,,,,,,,,,,,,10s,640.0511849809554,641.0514144329936,641.0456232919823,None,642.0454874910065,647.3733938029618,642.0454874910065,647.3733938029618,647.3733938029618,None,647.3733938029618,None,space,0.3814486970077269,647.3733938029618,None,5.3278,647.8865441629896,None,,,,,,,DEC009,001,2022_Jul_05_1518,2-25_cond_decay_EYE-try,2021.2.3,166.04517344565264,
right,1.0,0.75,0,1,0,1,0,0,0,0,0,0,8,8,5,,,,,,,,,,,,,,,10s,649.3182766299578,650.3186556139844,650.306694401952,None,651.3059938829974,655.9668233059929,651.3059938829974,655.9668233059929,655.9668233059929,None,655.9668233059929,None,space,0.3961073980317451,655.9668233059929,None,4.6593,656.4868901179871,None,,,,,,,DEC009,001,2022_Jul_05_1518,2-25_cond_decay_EYE-try,2021.2.3,166.04517344565264,
right,1.0,0.75,0,1,0,1,0,0,0,0,0,0,9,9,4,,,,,,,,,,,,,,,10s,657.9227819609805,658.9240103579941,658.9182625839603,None,659.9180613569915,669.2451104879729,659.9180613569915,669.2451104879729,669.2451104879729,None,669.2451104879729,None,space,0.43774341797688976,669.2451104879729,None,9.3279,669.8083128709695,None,,,,,,,DEC009,001,2022_Jul_05_1518,2-25_cond_decay_EYE-try,2021.2.3,166.04517344565264,
left,1.0,0.75,1,1,0,1,0,0,0,0,0,1,0,10,2,,,,,,,,,,,,,,,10s,671.2440713509568,672.2458240549895,672.2392522539594,None,673.2399725909927,673.6271757869981,673.2399725909927,673.6271757869981,673.6217260090052,None,673.6217260090052,None,space,0.525132779031992,673.6217260090052,None,0.3827,674.2684209179715,None,,,,,,,DEC009,001,2022_Jul_05_1518,2-25_cond_decay_EYE-try,2021.2.3,166.04517344565264,
left,0.75,1.0,0,1,0,1,0,0,0,0,0,1,1,11,8,,,,,,,,,,,,,,,10s,675.6997929469799,676.700482308981,676.693689852953,None,677.6937360899756,684.2376746189548,677.6937360899756,684.2376746189548,684.2322811189806,None,684.2322811189806,None,space,0.49065053201047704,684.2322811189806,None,6.5345,684.843678492005,None,,,,,,,DEC009,001,2022_Jul_05_1518,2-25_cond_decay_EYE-try,2021.2.3,166.04517344565264,
right,1.0,0.75,0,1,0,1,0,0,0,0,0,1,2,12,6,,,,,,,,,,,,,,,10s,686.2738969280035,687.2751485490007,687.2694047089899,None,688.2695204179618,688.4513226929703,688.2695204179618,688.4513226929703,688.4513226929703,None,688.4513226929703,None,space,0.4476060119923204,688.4513226929703,None,0.1815,689.0198857479845,None,,,,,,,DEC009,001,2022_Jul_05_1518,2-25_cond_decay_EYE-try,2021.2.3,166.04517344565264,
right,0.75,1.0,1,1,0,1,0,0,0,0,0,1,3,13,9,,,,,,,,,,,,,,,10s,690.4563561329851,691.45717930299,691.4452861979953,None,692.4453181799618,693.2390971040004,692.4453181799618,693.2390971040004,693.2390971040004,None,693.2390971040004,None,space,0.4598296089679934,693.2390971040004,None,0.793,693.8192910949583,None,,,,,,,DEC009,001,2022_Jul_05_1518,2-25_cond_decay_EYE-try,2021.2.3,166.04517344565264,
left,0.75,1.0,0,1,0,1,0,0,0,0,0,1,4,14,7,,,,,,,,,,,,,,,10s,695.2503576879972,696.2515607899986,696.2447894680081,None,697.2450398969813,700.3053837720072,697.2450398969813,700.3053837720072,700.3053837720072,None,700.3053837720072,None,space,0.513542523025535,700.3053837720072,None,3.0613,700.9414242119528,None,,,,,,,DEC009,001,2022_Jul_05_1518,2-25_cond_decay_EYE-try,2021.2.3,166.04517344565264,
right,1.0,0.75,0,1,0,1,0,0,0,0,0,1,5,15,4,,,,,,,,,,,,,,,10s,702.3785753569682,703.3783883159631,703.3728131829994,None,704.3723740929854,710.5161436399794,704.3723740929854,710.5161436399794,710.5107305429992,None,710.5107305429992,None,space,0.684196618036367,710.5107305429992,None,6.1361,711.3160327549558,None,,,,,,,DEC009,001,2022_Jul_05_1518,2-25_cond_decay_EYE-try,2021.2.3,166.04517344565264,
right,1.0,0.75,0,1,0,1,0,0,0,0,0,1,6,16,1,,,,,,,,,,,,,,,10s,712.7419359039632,713.7419966769521,713.7363170069875,None,714.7355319909984,719.7165379889775,714.7355319909984,719.7165379889775,719.7100910109584,None,719.7100910109584,None,space,0.4447720180032775,719.7100910109584,None,4.9723,720.281693487952,None,,,,,,,DEC009,001,2022_Jul_05_1518,2-25_cond_decay_EYE-try,2021.2.3,166.04517344565264,
left,0.75,1.0,0,1,0,1,0,0,0,0,0,1,7,17,3,,,,,,,,,,,,,,,10s,721.7223176299594,722.7241721089813,722.7112972519826,None,723.7113852389739,730.141533638991,723.7113852389739,730.141533638991,730.141533638991,None,730.141533638991,None,space,0.42934068001341075,730.141533638991,None,6.4303,730.6919004969532,None,,,,,,,DEC009,001,2022_Jul_05_1518,2-25_cond_decay_EYE-try,2021.2.3,166.04517344565264,
right,1.0,0.75,0,1,0,1,0,0,0,0,0,1,8,18,5,,,,,,,,,,,,,,,10s,732.1292080179555,733.1299300129758,733.1235090409755,None,734.123487291974,737.3118696239544,734.123487291974,737.3118696239544,737.3118696239544,None,737.3118696239544,None,space,0.4990572579554282,737.3118696239544,None,3.1841,737.940739624959,None,,,,,,,DEC009,001,2022_Jul_05_1518,2-25_cond_decay_EYE-try,2021.2.3,166.04517344565264,
left,0.75,1.0,0,1,0,1,0,0,0,0,0,1,9,19,0,,,,,,,,,,,,,,,10s,739.376992887992,740.3775520439958,740.3718324739602,None,741.3724027560093,750.2069799309829,741.3724027560093,750.2069799309829,750.2006240639603,None,750.2006240639603,None,None,,750.2006240639603,None,8.8277,751.3168306089938,None,,,,,,,DEC009,001,2022_Jul_05_1518,2-25_cond_decay_EYE-try,2021.2.3,166.04517344565264,
,,,,1,0,1,0,0,0,0,0,,,,,,,,,,,,,,,,,,,,,,,,,,,,,,,,,,,,,,,,,,,,,DEC009,001,2022_Jul_05_1518,2-25_cond_decay_EYE-try,2021.2.3,166.04517344565264,
right,1.0,0.75,0,1,0,1,0,1,0,1,0,0,0,0,6,,,,,,,,,752.2147534280084,None,752.2147534280084,None,752.2147534280084,None,1s,755.1770341880037,756.1776805029949,756.1657296890044,None,757.166148358956,757.8018382519949,757.166148358956,757.8018382519949,757.8018382519949,None,757.8018382519949,None,space,0.4970720300334506,757.8018382519949,None,0.6314,758.4254186319886,None,,,,,,,DEC009,001,2022_Jul_05_1518,2-25_cond_decay_EYE-try,2021.2.3,166.04517344565264,
left,1.0,0.75,1,1,0,1,0,1,0,1,0,0,1,1,2,,,,,,,,,,,,,,,1s,759.8565828109859,760.8565865950077,760.8509439929621,None,761.8500099550001,762.3780479769921,761.8500099550001,762.3780479769921,762.3780479769921,None,762.3780479769921,None,space,0.4169307289994322,762.3780479769921,None,0.5277,762.9159218329587,None,,,,,,,DEC009,001,2022_Jul_05_1518,2-25_cond_decay_EYE-try,2021.2.3,166.04517344565264,
left,0.75,1.0,0,1,0,1,0,1,0,1,0,0,2,2,8,,,,,,,,,,,,,,,1s,764.3462345610023,765.3471246759873,765.341422428959,None,766.3412115789833,766.6560684269643,766.3412115789833,766.6560684269643,766.6495901699527,None,766.6495901699527,None,space,0.4093466409831308,766.6495901699527,None,0.305,767.1820656619966,None,,,,,,,DEC009,001,2022_Jul_05_1518,2-25_cond_decay_EYE-try,2021.2.3,166.04517344565264,
right,1.0,0.75,0,1,0,1,0,1,0,1,0,0,3,3,7,,,,,,,,,,,,,,,1s,768.6262910149526,769.6264686729992,769.6197090490023,None,770.6195715119829,771.1277071110089,770.6195715119829,771.1277071110089,771.1212952709757,None,771.1212952709757,None,space,0.3535669540287927,771.1212952709757,None,0.4994,771.6003503539832,None,,,,,,,DEC009,001,2022_Jul_05_1518,2-25_cond_decay_EYE-try,2021.2.3,166.04517344565264,
left,0.75,1.0,0,1,0,1,0,1,0,1,0,0,4,4,1,,,,,,,,,,,,,,,1s,773.0434885349823,774.0438440169673,774.0381892939913,None,775.0381065869587,775.7944823239814,775.0381065869587,775.7944823239814,775.7880748609896,None,775.7880748609896,None,space,0.43087224202463403,775.7880748609896,None,0.7479,776.3400274660089,None,,,,,,,DEC009,001,2022_Jul_05_1518,2-25_cond_decay_EYE-try,2021.2.3,166.04517344565264,
right,1.0,0.75,0,1,0,1,0,1,0,1,0,0,5,5,9,,,,,,,,,,,,,,,1s,777.7698912429623,778.7715955319582,778.7659156409791,None,779.7653464349569,780.5899351819535,779.7653464349569,780.5899351819535,780.5899351819535,None,780.5899351819535,None,space,0.43692589801503345,780.5899351819535,None,0.8248,781.1526238939841,None,,,,,,,DEC009,001,2022_Jul_05_1518,2-25_cond_decay_EYE-try,2021.2.3,166.04517344565264,
left,0.75,1.0,0,1,0,1,0,1,0,1,0,0,6,6,5,,,,,,,,,,,,,,,1s,782.5946801739628,783.595491340966,783.5897633300046,None,784.5899699349538,784.951475001988,784.5899699349538,784.951475001988,784.9460923169972,None,784.9460923169972,None,space,0.4408375489874743,784.9460923169972,None,0.3546,785.5105523899547,None,,,,,,,DEC009,001,2022_Jul_05_1518,2-25_cond_decay_EYE-try,2021.2.3,166.04517344565264,
left,0.75,1.0,0,1,0,1,0,1,0,1,0,0,7,7,3,,,,,,,,,,,,,,,1s,786.9475317819742,787.9471621499979,787.9407243650057,None,788.9406321099959,789.2787538649864,788.9406321099959,789.2787538649864,789.2733745379956,None,789.2733745379956,None,space,0.43356721301097423,789.2733745379956,None,0.3291,789.8304399939952,None,,,,,,,DEC009,001,2022_Jul_05_1518,2-25_cond_decay_EYE-try,2021.2.3,166.04517344565264,
right,1.0,0.75,0,1,0,1,0,1,0,1,0,0,8,8,4,,,,,,,,,,,,,,,1s,791.2680485809688,792.2684634120087,792.2565665270085,None,793.2557760879863,794.0682486319565,793.2557760879863,794.0682486319565,794.0682486319565,None,794.0682486319565,None,space,0.39069177402416244,794.0682486319565,None,0.81,794.5819759889855,None,,,,,,,DEC009,001,2022_Jul_05_1518,2-25_cond_decay_EYE-try,2021.2.3,166.04517344565264,
right,1.0,0.75,0,1,0,1,0,1,0,1,0,0,9,9,0,,,,,,,,,,,,,,,1s,796.024436593987,797.0257077789865,797.0139245739556,None,798.0133986899746,798.4442788549932,798.0133986899746,798.4442788549932,798.4442788549932,None,798.4442788549932,None,space,0.4626715260092169,798.4442788549932,None,0.4312,799.0301537080086,None,,,,,,,DEC009,001,2022_Jul_05_1518,2-25_cond_decay_EYE-try,2021.2.3,166.04517344565264,
left,0.75,1.0,0,1,0,1,0,1,0,1,0,1,0,10,5,,,,,,,,,,,,,,,1s,800.4733189289691,801.4745723250089,801.4679172259639,None,802.4677882689866,803.3410841819714,802.4677882689866,803.3410841819714,803.3410841819714,None,803.3410841819714,None,space,0.5577980519738048,803.3410841819714,None,0.8715,804.0245999189792,None,,,,,,,DEC009,001,2022_Jul_05_1518,2-25_cond_decay_EYE-try,2021.2.3,166.04517344565264,
left,0.75,1.0,0,1,0,1,0,1,0,1,0,1,1,11,8,,,,,,,,,,,,,,,1s,805.4558293079608,806.4564895950025,806.449704477971,None,807.4503791650059,808.0741064529866,807.4503791650059,808.0741064529866,808.0741064529866,None,808.0741064529866,None,space,0.6648460589931346,808.0741064529866,None,0.6224,808.860430479981,None,,,,,,,DEC009,001,2022_Jul_05_1518,2-25_cond_decay_EYE-try,2021.2.3,166.04517344565264,
left,0.75,1.0,0,1,0,1,0,1,0,1,0,1,2,12,3,,,,,,,,,,,,,,,1s,810.286588064977,811.286001349974,811.2803040109575,None,812.2805127059692,813.0744357199874,812.2805127059692,813.0744357199874,813.0744357199874,None,813.0744357199874,None,space,0.568523220019415,813.0744357199874,None,0.791,813.7634840999963,None,,,,,,,DEC009,001,2022_Jul_05_1518,2-25_cond_decay_EYE-try,2021.2.3,166.04517344565264,
right,1.0,0.75,0,1,0,1,0,1,0,1,0,1,3,13,7,,,,,,,,,,,,,,,1s,815.2004404499894,816.2017161509721,816.1889114289661,None,817.1893473319942,817.5224300919799,817.1893473319942,817.5224300919799,817.5224300919799,None,817.5224300919799,None,space,0.46450507803820074,817.5224300919799,None,0.3329,818.1088470729883,None,,,,,,,DEC009,001,2022_Jul_05_1518,2-25_cond_decay_EYE-try,2021.2.3,166.04517344565264,
right,1.0,0.75,0,1,0,1,0,1,0,1,0,1,4,14,9,,,,,,,,,,,,,,,1s,819.5390410769614,820.5401814689976,820.5342314779991,None,821.5344030719716,821.8500234259991,821.5344030719716,821.8500234259991,821.8500234259991,None,821.8500234259991,None,space,0.4009248790098354,821.8500234259991,None,0.3116,822.3761563599692,None,,,,,,,DEC009,001,2022_Jul_05_1518,2-25_cond_decay_EYE-try,2021.2.3,166.04517344565264,
left,1.0,0.75,1,1,0,1,0,1,0,1,0,1,5,15,2,,,,,,,,,,,,,,,1s,823.8185435609776,824.8189648729749,824.8132348769577,None,825.8128512909752,826.0015400509583,825.8128512909752,826.0015400509583,826.0015400509583,None,826.0015400509583,None,space,0.4174340480240062,826.0015400509583,None,0.1872,826.5390652909991,None,,,,,,,DEC009,001,2022_Jul_05_1518,2-25_cond_decay_EYE-try,2021.2.3,166.04517344565264,
left,0.75,1.0,0,1,0,1,0,1,0,1,0,1,6,16,1,,,,,,,,,,,,,,,1s,827.9710594919743,828.9712616279721,828.9644014019868,None,829.9647698539775,830.4917837819667,829.9647698539775,830.4917837819667,830.486443242,None,830.486443242,None,space,0.5324919639970176,830.486443242,None,0.5238,831.138774824969,None,,,,,,,DEC009,001,2022_Jul_05_1518,2-25_cond_decay_EYE-try,2021.2.3,166.04517344565264,
right,0.75,1.0,1,1,0,1,0,1,0,1,0,1,7,17,6,,,,,,,,,,,,,,,1s,832.5753917919938,833.5767009980045,833.5710285049863,None,834.5704209589749,834.765017549973,834.5704209589749,834.765017549973,834.765017549973,None,834.765017549973,None,space,0.37392596702557057,834.765017549973,None,0.1936,835.2607793849893,None,,,,,,,DEC009,001,2022_Jul_05_1518,2-25_cond_decay_EYE-try,2021.2.3,166.04517344565264,
right,1.0,0.75,0,1,0,1,0,1,0,1,0,1,8,18,4,,,,,,,,,,,,,,,1s,836.6908202869818,837.692079822009,837.6802010319661,None,838.679690149962,839.2492072809837,838.679690149962,839.2492072809837,839.2492072809837,None,839.2492072809837,None,space,0.40174112300155684,839.2492072809837,None,0.5694,839.7773144319654,None,,,,,,,DEC009,001,2022_Jul_05_1518,2-25_cond_decay_EYE-try,2021.2.3,166.04517344565264,
right,1.0,0.75,0,1,0,1,0,1,0,1,0,1,9,19,0,,,,,,,,,,,,,,,1s,841.2074013089878,842.2068621339859,842.2008405500092,None,843.2013854130055,844.1405218459549,843.2013854130055,844.1405218459549,844.1405218459549,None,844.1405218459549,None,space,0.6144249089993536,844.1405218459549,None,0.9376,844.8786801869865,None,,,,,,,DEC009,001,2022_Jul_05_1518,2-25_cond_decay_EYE-try,2021.2.3,166.04517344565264,
,,,,1,0,1,0,1,0,1,0,,,,,,,,,,,,,,,,,,,,,,,,,,,,,,,,,,,,,,,,,,,,,DEC009,001,2022_Jul_05_1518,2-25_cond_decay_EYE-try,2021.2.3,166.04517344565264,
right,1.0,0.75,0,1,0,1,0,2,0,2,0,0,0,0,6,,,,,,,,,845.7870382539695,None,845.7870382539695,None,845.7870382539695,None,5s,848.2432267419645,849.2434178459807,849.2378002079786,None,850.237642699969,853.8497545199934,850.237642699969,853.8497545199934,853.8497545199934,None,853.8497545199934,None,space,0.36911762499948964,853.8497545199934,None,3.6113,854.3385580339818,None,,,,,,,DEC009,001,2022_Jul_05_1518,2-25_cond_decay_EYE-try,2021.2.3,166.04517344565264,
left,1.0,0.75,1,1,0,1,0,2,0,2,0,0,1,1,9,,,,,,,,,,,,,,,5s,855.7697346470086,856.770509874972,856.7648340339656,None,857.764902388968,858.1453779119765,857.764902388968,858.1453779119765,858.1386410339619,None,858.1386410339619,None,space,0.544303069007583,858.1386410339619,None,0.3715,858.8061542009818,None,,,,,,,DEC009,001,2022_Jul_05_1518,2-25_cond_decay_EYE-try,2021.2.3,166.04517344565264,
right,1.0,0.75,0,1,0,1,0,2,0,2,0,0,2,2,1,,,,,,,,,,,,,,,5s,860.2428861070075,861.2436025439529,861.2313955649734,None,862.2310618439806,864.6190599689726,862.2310618439806,864.6190599689726,864.6190599689726,None,864.6190599689726,None,space,0.41588812600821257,864.6190599689726,None,2.3873,865.1573927279678,None,,,,,,,DEC009,001,2022_Jul_05_1518,2-25_cond_decay_EYE-try,2021.2.3,166.04517344565264,
right,1.0,0.75,0,1,0,1,0,2,0,2,0,0,3,3,8,,,,,,,,,,,,,,,5s,866.5938149109716,867.5945355459698,867.5826488930034,None,868.5829067719751,872.7156581089948,868.5829067719751,872.7156581089948,872.7156581089948,None,872.7156581089948,None,space,0.5192701949854381,872.7156581089948,None,4.1307,873.3571149070049,None,,,,,,,DEC009,001,2022_Jul_05_1518,2-25_cond_decay_EYE-try,2021.2.3,166.04517344565264,
left,0.75,1.0,0,1,0,1,0,2,0,2,0,0,4,4,5,,,,,,,,,,,,,,,5s,874.7936447119573,875.7945749000064,875.7826780629694,None,876.7827405859716,881.2370047859731,876.7827405859716,881.2370047859731,881.2370047859731,None,881.2370047859731,None,space,0.4139442940359004,881.2370047859731,None,4.4513,881.7764622739633,None,,,,,,,DEC009,001,2022_Jul_05_1518,2-25_cond_decay_EYE-try,2021.2.3,166.04517344565264,
right,0.75,1.0,1,1,0,1,0,2,0,2,0,0,5,5,2,,,,,,,,,,,,,,,5s,883.217622599972,884.2188961170032,884.2122289929539,None,885.2126510069938,886.6607141509885,885.2126510069938,886.6607141509885,886.6607141509885,None,886.6607141509885,None,space,0.5502299179788679,886.6607141509885,None,1.4461,887.3327213879675,None,,,,,,,DEC009,001,2022_Jul_05_1518,2-25_cond_decay_EYE-try,2021.2.3,166.04517344565264,
right,1.0,0.75,0,1,0,1,0,2,0,2,0,0,6,6,3,,,,,,,,,,,,,,,5s,888.7632388959755,889.7636256999685,889.7516773559619,None,890.7515376149677,893.3276206409791,890.7515376149677,893.3276206409791,893.3276206409791,None,893.3276206409791,None,None,,893.3276206409791,None,2.5735,894.4426407999708,None,,,,,,,DEC009,001,2022_Jul_05_1518,2-25_cond_decay_EYE-try,2021.2.3,166.04517344565264,
left,0.75,1.0,0,1,0,1,0,2,0,2,0,0,7,7,7,,,,,,,,,,,,,,,5s,895.8779468829744,896.8792754769675,896.8726100559579,None,897.873534947983,899.9705908659962,897.873534947983,899.9705908659962,899.9705908659962,None,899.9705908659962,None,space,0.5362918030004948,899.9705908659962,None,2.0952,900.6350144189782,None,,,,,,,DEC009,001,2022_Jul_05_1518,2-25_cond_decay_EYE-try,2021.2.3,166.04517344565264,
left,0.75,1.0,0,1,0,1,0,2,0,2,0,0,8,8,4,,,,,,,,,,,,,,,5s,902.0599586279714,903.0609806719585,903.0543335889815,None,904.0545056629926,904.4911174050067,904.0545056629926,904.4911174050067,904.4911174050067,None,904.4911174050067,None,space,0.37582212302368134,904.4911174050067,None,0.4357,904.992576677003,None,,,,,,,DEC009,001,2022_Jul_05_1518,2-25_cond_decay_EYE-try,2021.2.3,166.04517344565264,
left,0.75,1.0,0,1,0,1,0,2,0,2,0,0,9,9,0,,,,,,,,,,,,,,,5s,906.4289696809719,907.4309032979654,907.418898874952,None,908.4182051629759,908.6603278169641,908.4182051629759,908.6603278169641,908.6666520059807,None,908.6666520059807,None,space,0.7043130000238307,908.6666520059807,None,0.2433,909.4964836959844,None,,,,,,,DEC009,001,2022_Jul_05_1518,2-25_cond_decay_EYE-try,2021.2.3,166.04517344565264,
left,0.75,1.0,0,1,0,1,0,2,0,2,0,1,0,10,0,,,,,,,,,,,,,,,5s,910.9321520359954,911.9336665669689,911.92130782397,None,912.9214244649629,914.073207331996,912.9214244649629,914.073207331996,914.073207331996,None,914.073207331996,None,space,0.5777525040321052,914.073207331996,None,1.1525,914.7747341179638,None,,,,,,,DEC009,001,2022_Jul_05_1518,2-25_cond_decay_EYE-try,2021.2.3,166.04517344565264,
right,1.0,0.75,0,1,0,1,0,2,0,2,0,1,1,11,8,,,,,,,,,,,,,,,5s,916.2114636119804,917.2118098610081,917.2061221299809,None,918.2060697069974,918.6776691919658,918.2060697069974,918.6776691919658,918.6711914989864,None,918.6711914989864,None,space,0.4517754510161467,918.6711914989864,None,0.4632,919.2474723319756,None,,,,,,,DEC009,001,2022_Jul_05_1518,2-25_cond_decay_EYE-try,2021.2.3,166.04517344565264,
left,0.75,1.0,0,1,0,1,0,2,0,2,0,1,2,12,4,,,,,,,,,,,,,,,5s,920.6841504389886,921.6852888559806,921.6786272469908,None,922.6791477879742,926.4122880569776,922.6791477879742,926.4122880569776,926.4122880569776,None,926.4122880569776,None,space,0.4866677580284886,926.4122880569776,None,3.733,927.0238350789878,None,,,,,,,DEC009,001,2022_Jul_05_1518,2-25_cond_decay_EYE-try,2021.2.3,166.04517344565264,
right,1.0,0.75,0,1,0,1,0,2,0,2,0,1,3,13,3,,,,,,,,,,,,,,,5s,928.460124988982,929.4610285509843,929.4489793229732,None,930.4488385719596,931.9212033219519,930.4488385719596,931.9212033219519,931.9212033219519,None,931.9212033219519,None,space,0.4897817380260676,931.9212033219519,None,1.4691,932.5319362959708,None,,,,,,,DEC009,001,2022_Jul_05_1518,2-25_cond_decay_EYE-try,2021.2.3,166.04517344565264,
left,1.0,0.75,1,1,0,1,0,2,0,2,0,1,4,14,9,,,,,,,,,,,,,,,5s,933.9683661320014,934.9694041580078,934.9638125239871,None,935.9633415709832,937.4427319589886,935.9633415709832,937.4427319589886,937.4427319589886,None,937.4427319589886,None,space,0.5361589079839177,937.4427319589886,None,1.4799,938.1020284579718,None,,,,,,,DEC009,001,2022_Jul_05_1518,2-25_cond_decay_EYE-try,2021.2.3,166.04517344565264,
right,1.0,0.75,0,1,0,1,0,2,0,2,0,1,5,15,6,,,,,,,,,,,,,,,5s,939.5390424409998,940.5390790939564,940.5273656820063,None,941.5272992809769,946.4359500669525,941.5272992809769,946.4359500669525,946.4359500669525,None,946.4359500669525,None,space,0.8389988580020145,946.4359500669525,None,4.905,947.3996756279957,None,,,,,,,DEC009,001,2022_Jul_05_1518,2-25_cond_decay_EYE-try,2021.2.3,166.04517344565264,
left,0.75,1.0,0,1,0,1,0,2,0,2,0,1,6,16,7,,,,,,,,,,,,,,,5s,948.8413979409961,949.8425975429709,949.8358055639546,None,950.8364134549629,952.4297365979874,950.8364134549629,952.4297365979874,952.4297365979874,None,952.4297365979874,None,space,0.4851513640023768,952.4297365979874,None,1.5935,953.0412080590031,None,,,,,,,DEC009,001,2022_Jul_05_1518,2-25_cond_decay_EYE-try,2021.2.3,166.04517344565264,
right,0.75,1.0,1,1,0,1,0,2,0,2,0,1,7,17,2,,,,,,,,,,,,,,,5s,954.4787346789963,955.4787940239767,955.472136819968,None,956.4724951039534,957.8664534699637,956.4724951039534,957.8664534699637,957.8664534699637,None,957.8664534699637,None,space,0.4645087139797397,957.8664534699637,None,1.3898,958.4533131259959,None,,,,,,,DEC009,001,2022_Jul_05_1518,2-25_cond_decay_EYE-try,2021.2.3,166.04517344565264,
right,1.0,0.75,0,1,0,1,0,2,0,2,0,1,8,18,1,,,,,,,,,,,,,,,5s,959.8781340330024,960.8787520829937,960.8718575369567,None,961.8720251279883,962.8178707319894,961.8720251279883,962.8178707319894,962.8178707319894,None,962.8178707319894,None,space,0.9450986650190316,962.8178707319894,None,0.9437,963.8827008529915,None,,,,,,,DEC009,001,2022_Jul_05_1518,2-25_cond_decay_EYE-try,2021.2.3,166.04517344565264,
left,0.75,1.0,0,1,0,1,0,2,0,2,0,1,9,19,5,,,,,,,,,,,,,,,5s,965.3139949839679,966.3150514059816,966.3084122759756,None,967.3082159389742,968.2422736790031,967.3082159389742,968.2422736790031,968.2422736790031,None,968.2422736790031,None,space,0.5606715049943887,968.2422736790031,None,0.9297,968.9253781329608,None,,,,,,,DEC009,001,2022_Jul_05_1518,2-25_cond_decay_EYE-try,2021.2.3,166.04517344565264,
,,,,1,0,1,0,2,0,2,0,,,,,,,,,,,,,,,,,,,,,,,,,,,,,,,,,,,,,,,,,,,,,DEC009,001,2022_Jul_05_1518,2-25_cond_decay_EYE-try,2021.2.3,166.04517344565264,
right,1.0,0.75,0,1,0,1,0,3,0,3,0,0,0,0,6,,,,,,,,,969.8238330329768,None,969.8238330329768,None,969.8238330329768,None,3s,973.1208609369933,974.1210173699656,974.1141677979613,None,975.1151214959682,977.7444144749898,975.1151214959682,977.7444144749898,977.7379241059534,None,977.7379241059534,None,space,0.433052456995938,977.7379241059534,None,2.6199,978.2960109359701,None,,,,,,,DEC009,001,2022_Jul_05_1518,2-25_cond_decay_EYE-try,2021.2.3,166.04517344565264,
right,1.0,0.75,0,1,0,1,0,3,0,3,0,0,1,1,7,,,,,,,,,,,,,,,3s,979.7376660999726,980.7383444559528,980.7263342879596,None,981.7270199869527,982.7088161869906,981.7270199869527,982.7088161869906,982.7088161869906,None,982.7088161869906,None,space,0.43007211695658043,982.7088161869906,None,0.9807,983.2650031189551,None,,,,,,,DEC009,001,2022_Jul_05_1518,2-25_cond_decay_EYE-try,2021.2.3,166.04517344565264,
right,1.0,0.75,0,1,0,1,0,3,0,3,0,0,2,2,8,,,,,,,,,,,,,,,3s,984.7024217959843,985.7026203729911,985.695881506952,None,986.6961966709932,987.2355579260038,986.6961966709932,987.2355579260038,987.2286948830006,None,987.2286948830006,None,space,0.44626304396661,987.2286948830006,None,0.5299,987.7978232269525,None,,,,,,,DEC009,001,2022_Jul_05_1518,2-25_cond_decay_EYE-try,2021.2.3,166.04517344565264,
right,1.0,0.75,0,1,0,1,0,3,0,3,0,0,3,3,5,,,,,,,,,,,,,,,3s,989.22350868996,990.2232840729994,990.2177010059822,None,991.2171907249722,992.9672690139851,991.2171907249722,992.9672690139851,992.9617092249682,None,992.9617092249682,None,None,,992.9617092249682,None,1.7406,994.0772305610008,None,,,,,,,DEC009,001,2022_Jul_05_1518,2-25_cond_decay_EYE-try,2021.2.3,166.04517344565264,
right,1.0,0.75,0,1,0,1,0,3,0,3,0,0,4,4,3,,,,,,,,,,,,,,,3s,995.5069753769785,996.5083401899901,996.5016769539798,None,997.5023719669553,1000.2956449280027,997.5023719669553,1000.2956449280027,1000.2956449280027,None,1000.2956449280027,None,space,0.443264841043856,1000.2956449280027,None,2.7906,1000.8706275289878,None,,,,,,,DEC009,001,2022_Jul_05_1518,2-25_cond_decay_EYE-try,2021.2.3,166.04517344565264,
left,0.75,1.0,0,1,0,1,0,3,0,3,0,0,5,5,1,,,,,,,,,,,,,,,3s,1002.3066583979526,1003.3080427029636,1003.3023448229651,None,1004.3026317959884,1005.5203106469708,1004.3026317959884,1005.5203106469708,1005.5203106469708,None,1005.5203106469708,None,space,0.458609672030434,1005.5203106469708,None,1.2176,1006.1003125509596,None,,,,,,,DEC009,001,2022_Jul_05_1518,2-25_cond_decay_EYE-try,2021.2.3,166.04517344565264,
left,0.75,1.0,0,1,0,1,0,3,0,3,0,0,6,6,0,,,,,,,,,,,,,,,3s,1007.5313631320023,1008.5326130900066,1008.5259151959908,None,1009.5261252640048,1010.5085475679953,1009.5261252640048,1010.5085475679953,1010.5085475679953,None,1010.5085475679953,None,space,0.4144136920222081,1010.5085475679953,None,0.9811,1011.047885487962,None,,,,,,,DEC009,001,2022_Jul_05_1518,2-25_cond_decay_EYE-try,2021.2.3,166.04517344565264,
left,0.75,1.0,0,1,0,1,0,3,0,3,0,0,7,7,2,,,,,,,,,,,,,,,3s,1012.4766105739982,1013.4781968469615,1013.4715199960046,None,1014.4712537599844,1015.2047208559816,1014.4712537599844,1015.2047208559816,1015.1982028349885,None,1015.1982028349885,None,space,0.4767033890238963,1015.1982028349885,None,0.7241,1015.7980261329794,None,,,,,,,DEC009,001,2022_Jul_05_1518,2-25_cond_decay_EYE-try,2021.2.3,166.04517344565264,
left,0.75,1.0,0,1,0,1,0,3,0,3,0,0,8,8,9,,,,,,,,,,,,,,,3s,1017.2274978619535,1018.2287936729845,1018.2169410180068,None,1019.2171779130003,1019.9624319119612,1019.2171779130003,1019.9624319119612,1019.9624319119612,None,1019.9624319119612,None,space,0.4645359339774586,1019.9624319119612,None,0.7445,1020.5487197669572,None,,,,,,,DEC009,001,2022_Jul_05_1518,2-25_cond_decay_EYE-try,2021.2.3,166.04517344565264,
left,1.0,0.75,1,1,0,1,0,3,0,3,0,0,9,9,4,,,,,,,,,,,,,,,3s,1021.9809282649658,1022.9802843019716,1022.9746091289562,None,1023.9749712589546,1026.6105256129522,1023.9749712589546,1026.6105256129522,1026.60398128198,None,1026.60398128198,None,space,0.3829091159859672,1026.60398128198,None,2.6263,1027.1124887309852,None,,,,,,,DEC009,001,2022_Jul_05_1518,2-25_cond_decay_EYE-try,2021.2.3,166.04517344565264,
right,1.0,0.75,0,1,0,1,0,3,0,3,0,1,0,10,5,,,,,,,,,,,,,,,3s,1028.5488221569685,1029.5501200209837,1029.5445815359708,None,1030.5440877659712,1033.040704826999,1030.5440877659712,1033.040704826999,1033.040704826999,None,1033.040704826999,None,space,0.4741851880098693,1033.040704826999,None,2.4954,1033.6394532539998,None,,,,,,,DEC009,001,2022_Jul_05_1518,2-25_cond_decay_EYE-try,2021.2.3,166.04517344565264,
right,0.75,1.0,1,1,0,1,0,3,0,3,0,1,1,11,6,,,,,,,,,,,,,,,3s,1035.0828129769652,1036.0839377410011,1036.070990557957,None,1037.0711899059825,1039.9867418719805,1037.0711899059825,1039.9867418719805,1039.9867418719805,None,1039.9867418719805,None,space,0.40822445694357157,1039.9867418719805,None,2.9141,1040.518827474967,None,,,,,,,DEC009,001,2022_Jul_05_1518,2-25_cond_decay_EYE-try,2021.2.3,166.04517344565264,
left,0.75,1.0,0,1,0,1,0,3,0,3,0,1,2,12,1,,,,,,,,,,,,,,,3s,1041.9612630119664,1042.961865596997,1042.950125547999,None,1043.9497402829584,1044.2470089099952,1043.9497402829584,1044.2470089099952,1044.2470089099952,None,1044.2470089099952,None,space,0.40392675797920674,1044.2470089099952,None,0.2956,1044.7734104039846,None,,,,,,,DEC009,001,2022_Jul_05_1518,2-25_cond_decay_EYE-try,2021.2.3,166.04517344565264,
right,1.0,0.75,0,1,0,1,0,3,0,3,0,1,3,13,3,,,,,,,,,,,,,,,3s,1046.2096830949886,1047.2109638910042,1047.2041928959661,None,1048.2045049300068,1050.398635312973,1048.2045049300068,1050.398635312973,1050.398635312973,None,1050.398635312973,None,None,,1050.398635312973,None,2.1923,1051.5141193749732,None,,,,,,,DEC009,001,2022_Jul_05_1518,2-25_cond_decay_EYE-try,2021.2.3,166.04517344565264,
left,0.75,1.0,0,1,0,1,0,3,0,3,0,1,4,14,2,,,,,,,,,,,,,,,3s,1052.9425042799558,1053.944022664975,1053.9382301499718,None,1054.9380706269876,1056.3498712260043,1054.9380706269876,1056.3498712260043,1056.3498712260043,None,1056.3498712260043,None,space,0.4211090300232172,1056.3498712260043,None,1.4091,1056.9005766849732,None,,,,,,,DEC009,001,2022_Jul_05_1518,2-25_cond_decay_EYE-try,2021.2.3,166.04517344565264,
right,1.0,0.75,0,1,0,1,0,3,0,3,0,1,5,15,8,,,,,,,,,,,,,,,3s,1058.342570370005,1059.3436042699614,1059.3313525819685,None,1060.33184132498,1061.7609239489539,1060.33184132498,1061.7609239489539,1061.7544285949552,None,1061.7544285949552,None,space,0.42454652104061097,1061.7544285949552,None,1.4208,1062.299794874969,None,,,,,,,DEC009,001,2022_Jul_05_1518,2-25_cond_decay_EYE-try,2021.2.3,166.04517344565264,
right,1.0,0.75,0,1,0,1,0,3,0,3,0,1,6,16,7,,,,,,,,,,,,,,,3s,1063.7361081859563,1064.7382342389901,1064.7261391920038,None,1065.732172230957,1066.3732152559678,1065.732172230957,1066.3732152559678,1066.3666133710067,None,1066.3666133710067,None,space,0.5563779640360735,1066.3666133710067,None,0.6332,1067.0452744279755,None,,,,,,,DEC009,001,2022_Jul_05_1518,2-25_cond_decay_EYE-try,2021.2.3,166.04517344565264,
left,1.0,0.75,1,1,0,1,0,3,0,3,0,1,7,17,4,,,,,,,,,,,,,,,3s,1068.4825161029585,1069.483370064001,1069.476646414958,None,1070.477029613976,1073.251423419977,1070.477029613976,1073.251423419977,1073.2450045269798,None,1073.2450045269798,None,space,0.9019673559814692,1073.2450045269798,None,2.766,1074.2693148449762,None,,,,,,,DEC009,001,2022_Jul_05_1518,2-25_cond_decay_EYE-try,2021.2.3,166.04517344565264,
left,0.75,1.0,0,1,0,1,0,3,0,3,0,1,8,18,9,,,,,,,,,,,,,,,3s,1075.7004668599693,1076.7010148869595,1076.6954184179776,None,1077.694726126967,1080.3130623920006,1077.694726126967,1080.3130623920006,1080.307730765955,None,1080.307730765955,None,space,0.4552392149926163,1080.307730765955,None,2.6139,1080.8886176939704,None,,,,,,,DEC009,001,2022_Jul_05_1518,2-25_cond_decay_EYE-try,2021.2.3,166.04517344565264,
left,0.75,1.0,0,1,0,1,0,3,0,3,0,1,9,19,0,,,,,,,,,,,,,,,3s,1082.3305984089966,1083.3309936199803,1083.3252417339827,None,1084.3198337589856,1087.1491646879585,1084.3198337589856,1087.1491646879585,1087.1491646879585,1088.1495123519562,1087.1491646879585,1088.1495123519562,None,,1087.1491646879585,1088.1495123519562,2.8275,1088.269722469966,None,,,,,,,DEC009,001,2022_Jul_05_1518,2-25_cond_decay_EYE-try,2021.2.3,166.04517344565264,
,,,,1,0,1,0,3,0,3,0,,,,,,,,,,,,,,,,,,,,,,,,,,,,,,,,,,,,,,,,,,,,,DEC009,001,2022_Jul_05_1518,2-25_cond_decay_EYE-try,2021.2.3,166.04517344565264,
,,,,1,0,1,0,,,,,,,,,,,,,,,,,,,,,,,,,,,,,,,,,,,,,,,,,,,1089.167973298987,None,1089.167973298987,None,1089.167973298987,None,DEC009,001,2022_Jul_05_1518,2-25_cond_decay_EYE-try,2021.2.3,166.04517344565264,
right,0.75,1.0,1,2,0,2,0,0,0,0,0,0,0,0,9,,,,,,,,,1094.1729345519561,None,1094.1729345519561,None,1094.1729345519561,None,10s,1100.8206253759563,1101.822074841999,1101.8164498659899,None,1102.809556868975,1107.6701220359537,1102.809556868975,1107.6701220359537,1107.6764240579796,None,1107.6764240579796,None,space,0.6385539670009166,1107.6764240579796,None,4.8605,1108.4449816569686,None,,,,,,,DEC009,001,2022_Jul_05_1518,2-25_cond_decay_EYE-try,2021.2.3,166.04517344565264,
right,0.75,1.0,1,2,0,2,0,0,0,0,0,0,1,1,4,,,,,,,,,,,,,,,10s,1109.87488583097,1110.8766284669982,1110.8700056019588,None,1111.8706742019858,1119.3598218959523,1111.8706742019858,1119.3598218959523,1119.3534366069944,None,1119.3534366069944,None,space,0.40954167203744873,1119.3534366069944,None,7.48,1119.8877977969823,None,,,,,,,DEC009,001,2022_Jul_05_1518,2-25_cond_decay_EYE-try,2021.2.3,166.04517344565264,
right,1.0,0.75,0,2,0,2,0,0,0,0,0,0,2,2,6,,,,,,,,,,,,,,,10s,1121.3232702770038,1122.3249948449666,1122.3130723299691,None,1123.312565443979,1123.5245605169912,1123.312565443979,1123.5245605169912,1123.5245605169912,None,1123.5245605169912,None,space,0.4224231129628606,1123.5245605169912,None,0.2137,1124.069134018966,None,,,,,,,DEC009,001,2022_Jul_05_1518,2-25_cond_decay_EYE-try,2021.2.3,166.04517344565264,
left,1.0,0.75,1,2,0,2,0,0,0,0,0,0,3,3,8,,,,,,,,,,,,,,,10s,1125.5011541759595,1126.5005421160022,1126.494791289966,None,1127.4943688359926,1129.6821282609599,1127.4943688359926,1129.6821282609599,1129.6821282609599,None,1129.6821282609599,None,space,0.480849247018341,1129.6821282609599,None,2.186,1130.2888593410025,None,,,,,,,DEC009,001,2022_Jul_05_1518,2-25_cond_decay_EYE-try,2021.2.3,166.04517344565264,
left,0.75,1.0,0,2,0,2,0,0,0,0,0,0,4,4,1,,,,,,,,,,,,,,,10s,1131.7239697490004,1132.72533768398,1132.7183783929795,None,1133.718203919998,1141.928894254961,1133.718203919998,1141.928894254961,1141.9231546859955,None,1141.9231546859955,None,space,0.4557922020321712,1141.9231546859955,None,8.2053,1142.499537213007,None,,,,,,,DEC009,001,2022_Jul_05_1518,2-25_cond_decay_EYE-try,2021.2.3,166.04517344565264,
right,1.0,0.75,0,2,0,2,0,0,0,0,0,0,5,5,7,,,,,,,,,,,,,,,10s,1143.9309492169996,1144.9307841659756,1144.9251832889859,None,1145.9250072169816,1151.027193966962,1145.9250072169816,1151.027193966962,1151.021847291966,None,1151.021847291966,None,space,0.4451323599787429,1151.021847291966,None,5.1004,1151.5902139859973,None,,,,,,,DEC009,001,2022_Jul_05_1518,2-25_cond_decay_EYE-try,2021.2.3,166.04517344565264,
left,0.75,1.0,0,2,0,2,0,0,0,0,0,0,6,6,0,,,,,,,,,,,,,,,10s,1153.0212363739847,1154.021018705971,1154.0151352909743,None,1155.0150639669737,1156.9303552680067,1155.0150639669737,1156.9303552680067,1156.9249515649863,None,1156.9249515649863,None,space,0.42996818700339645,1156.9249515649863,None,1.9127,1157.4807053009863,None,,,,,,,DEC009,001,2022_Jul_05_1518,2-25_cond_decay_EYE-try,2021.2.3,166.04517344565264,
left,0.75,1.0,0,2,0,2,0,0,0,0,0,0,7,7,5,,,,,,,,,,,,,,,10s,1158.912414767954,1159.912673423998,1159.9059346889844,None,1160.9060817039572,1162.899754868995,1160.9060817039572,1162.899754868995,1162.899754868995,None,1162.899754868995,None,space,0.5512298379908316,1162.899754868995,None,1.9923,1163.5712336259894,None,,,,,,,DEC009,001,2022_Jul_05_1518,2-25_cond_decay_EYE-try,2021.2.3,166.04517344565264,
right,1.0,0.75,0,2,0,2,0,0,0,0,0,0,8,8,2,,,,,,,,,,,,,,,10s,1165.0077869659872,1166.0092269649613,1165.997119431966,None,1166.9974532759516,1170.1488823659602,1166.9974532759516,1170.1488823659602,1170.1488823659602,None,1170.1488823659602,None,space,0.5820302389911376,1170.1488823659602,None,3.1508,1170.856662428996,None,,,,,,,DEC009,001,2022_Jul_05_1518,2-25_cond_decay_EYE-try,2021.2.3,166.04517344565264,
left,0.75,1.0,0,2,0,2,0,0,0,0,0,0,9,9,3,,,,,,,,,,,,,,,10s,1172.2990258570062,1173.299659933953,1173.293880882964,None,1174.2937900359975,1181.100136447989,1174.2937900359975,1181.100136447989,1181.100136447989,None,1181.100136447989,None,None,,1181.100136447989,None,6.8066,1182.2156041219714,None,,,,,,,DEC009,001,2022_Jul_05_1518,2-25_cond_decay_EYE-try,2021.2.3,166.04517344565264,
right,1.0,0.75,0,2,0,2,0,0,0,0,0,1,0,10,6,,,,,,,,,,,,,,,10s,1183.6505770829972,1184.6516060569556,1184.6458476950065,None,1185.6456641809782,1192.3723721829592,1185.6456641809782,1192.3723721829592,1192.3669410839793,None,1192.3669410839793,None,space,0.371987019025255,1192.3669410839793,None,6.7233,1192.8678432729794,None,,,,,,,DEC009,001,2022_Jul_05_1518,2-25_cond_decay_EYE-try,2021.2.3,166.04517344565264,
right,1.0,0.75,0,2,0,2,0,0,0,0,0,1,1,11,7,,,,,,,,,,,,,,,10s,1194.2942323359894,1195.293313068978,1195.2875173540087,None,1196.2870850779582,1196.7721226649592,1196.2870850779582,1196.7721226649592,1196.766778617981,None,1196.766778617981,None,space,0.4842403290094808,1196.766778617981,None,0.4804,1197.3718246810022,None,,,,,,,DEC009,001,2022_Jul_05_1518,2-25_cond_decay_EYE-try,2021.2.3,166.04517344565264,
left,1.0,0.75,1,2,0,2,0,0,0,0,0,1,2,12,8,,,,,,,,,,,,,,,10s,1198.801247535972,1199.8024197209743,1199.7966689229943,None,1200.7963350520004,1201.7955436019693,1200.7963350520004,1201.7955436019693,1201.789111168997,None,1201.789111168997,None,space,0.4058878749492578,1201.789111168997,None,0.9912,1202.3164428569726,None,,,,,,,DEC009,001,2022_Jul_05_1518,2-25_cond_decay_EYE-try,2021.2.3,166.04517344565264,
right,0.75,1.0,1,2,0,2,0,0,0,0,0,1,3,13,4,,,,,,,,,,,,,,,10s,1203.7529425649554,1204.754783050972,1204.7419930289616,None,1205.7423917319975,1213.0557889539632,1205.7423917319975,1213.0557889539632,1213.0494200009853,None,1213.0494200009853,None,space,0.4975836790399626,1213.0494200009853,None,7.3047,1213.6685411509825,None,,,,,,,DEC009,001,2022_Jul_05_1518,2-25_cond_decay_EYE-try,2021.2.3,166.04517344565264,
left,0.75,1.0,0,2,0,2,0,0,0,0,0,1,4,14,0,,,,,,,,,,,,,,,10s,1215.097950653988,1216.0994653359521,1216.0938123679953,None,1217.0936612669611,1219.9648332949728,1217.0936612669611,1219.9648332949728,1219.958385662001,None,1219.958385662001,None,space,0.44453544000862166,1219.958385662001,None,2.8621,1220.528056230978,None,,,,,,,DEC009,001,2022_Jul_05_1518,2-25_cond_decay_EYE-try,2021.2.3,166.04517344565264,
left,0.75,1.0,0,2,0,2,0,0,0,0,0,1,5,15,3,,,,,,,,,,,,,,,10s,1221.9650586629868,1222.9658780449536,1222.960179202957,None,1223.960149312974,1225.0816985439742,1223.960149312974,1225.0816985439742,1225.0816985439742,None,1225.0816985439742,None,space,0.6812950239982456,1225.0816985439742,None,1.1184,1225.8863680699724,None,,,,,,,DEC009,001,2022_Jul_05_1518,2-25_cond_decay_EYE-try,2021.2.3,166.04517344565264,
left,0.75,1.0,0,2,0,2,0,0,0,0,0,1,6,16,1,,,,,,,,,,,,,,,10s,1227.3181100279908,1228.3171047579963,1228.3112929769559,None,1229.3118628129596,1231.2869525559945,1229.3118628129596,1231.2869525559945,1231.2815773899783,None,1231.2815773899783,None,space,0.6814272970077582,1231.2815773899783,None,1.973,1232.0856881240034,None,,,,,,,DEC009,001,2022_Jul_05_1518,2-25_cond_decay_EYE-try,2021.2.3,166.04517344565264,
right,1.0,0.75,0,2,0,2,0,0,0,0,0,1,7,17,2,,,,,,,,,,,,,,,10s,1233.5239453410031,1234.5236831899965,1234.5118810939603,None,1235.5113777149818,1244.093198460003,1235.5113777149818,1244.093198460003,1244.093198460003,None,1244.093198460003,None,space,0.7177933829952963,1244.093198460003,None,8.5804,1244.9343060359824,None,,,,,,,DEC009,001,2022_Jul_05_1518,2-25_cond_decay_EYE-try,2021.2.3,166.04517344565264,
right,1.0,0.75,0,2,0,2,0,0,0,0,0,1,8,18,9,,,,,,,,,,,,,,,10s,1246.3710405619931,1247.372142608976,1247.3601396149606,None,1248.3598915449693,1254.7235706969514,1248.3598915449693,1254.7235706969514,1254.7235706969514,None,1254.7235706969514,None,space,0.4474321419838816,1254.7235706969514,None,6.3617,1255.2921333999839,None,,,,,,,DEC009,001,2022_Jul_05_1518,2-25_cond_decay_EYE-try,2021.2.3,166.04517344565264,
left,0.75,1.0,0,2,0,2,0,0,0,0,0,1,9,19,5,,,,,,,,,,,,,,,10s,1256.728249290958,1257.729266965005,1257.7237098189653,None,1258.7237697250093,1263.4855167489732,1258.7237697250093,1263.4855167489732,1263.4789628859726,None,1263.4789628859726,None,space,0.5639806689578108,1263.4789628859726,None,4.7546,1264.1639969229582,None,,,,,,,DEC009,001,2022_Jul_05_1518,2-25_cond_decay_EYE-try,2021.2.3,166.04517344565264,
,,,,2,0,2,0,0,0,0,0,,,,,,,,,,,,,,,,,,,,,,,,,,,,,,,,,,,,,,,,,,,,,DEC009,001,2022_Jul_05_1518,2-25_cond_decay_EYE-try,2021.2.3,166.04517344565264,
right,1.0,0.75,0,2,0,2,0,1,0,1,0,0,0,0,5,,,,,,,,,1265.0668814780074,None,1265.0668814780074,None,1265.0668814780074,None,5s,1269.2266433929908,1270.2262275009998,1270.2205736569595,None,1271.2202830759925,1272.1712277510087,1271.2202830759925,1272.1712277510087,1272.164613826957,None,1272.164613826957,None,space,0.38244378101080656,1272.164613826957,None,0.9401,1272.6670142369694,None,,,,,,,DEC009,001,2022_Jul_05_1518,2-25_cond_decay_EYE-try,2021.2.3,166.04517344565264,
right,1.0,0.75,0,2,0,2,0,1,0,1,0,0,1,1,8,,,,,,,,,,,,,,,5s,1274.0971375469817,1275.0989714379539,1275.0870226389961,None,1276.0861513639684,1278.8623861059896,1276.0861513639684,1278.8623861059896,1278.8623861059896,None,1278.8623861059896,None,space,0.39662556402618065,1278.8623861059896,None,2.7755,1279.3823957539862,None,,,,,,,DEC009,001,2022_Jul_05_1518,2-25_cond_decay_EYE-try,2021.2.3,166.04517344565264,
left,1.0,0.75,1,2,0,2,0,1,0,1,0,0,2,2,6,,,,,,,,,,,,,,,5s,1280.818558252009,1281.8200224539614,1281.8143287719577,None,1282.8140257149935,1283.0363713679835,1282.8140257149935,1283.0363713679835,1283.0309510619845,None,1283.0309510619845,None,space,0.42006047995528206,1283.0309510619845,None,0.2146,1283.5772698639776,None,,,,,,,DEC009,001,2022_Jul_05_1518,2-25_cond_decay_EYE-try,2021.2.3,166.04517344565264,
left,0.75,1.0,0,2,0,2,0,1,0,1,0,0,3,3,9,,,,,,,,,,,,,,,5s,1285.0127953609917,1286.0137762969825,1286.0080602800008,None,1287.001272619993,1287.728873074986,1287.001272619993,1287.728873074986,1287.728873074986,None,1287.728873074986,None,space,0.42612053104676306,1287.728873074986,None,0.7255,1288.2795747100026,None,,,,,,,DEC009,001,2022_Jul_05_1518,2-25_cond_decay_EYE-try,2021.2.3,166.04517344565264,
right,1.0,0.75,0,2,0,2,0,1,0,1,0,0,4,4,7,,,,,,,,,,,,,,,5s,1289.7154379939893,1290.716774171975,1290.711124783964,None,1291.7112216759706,1294.3897603129735,1291.7112216759706,1294.3897603129735,1294.3897603129735,None,1294.3897603129735,None,None,,1294.3897603129735,None,2.6787,1295.503917867958,None,,,,,,,DEC009,001,2022_Jul_05_1518,2-25_cond_decay_EYE-try,2021.2.3,166.04517344565264,
left,0.75,1.0,0,2,0,2,0,1,0,1,0,0,5,5,1,,,,,,,,,,,,,,,5s,1296.9334305640077,1297.9346303069615,1297.929061294999,None,1298.9288114109659,1302.4255277320044,1298.9288114109659,1302.4255277320044,1302.419010892976,None,1302.419010892976,None,space,0.38395852997200564,1302.419010892976,None,3.4862,1302.9332528949599,None,,,,,,,DEC009,001,2022_Jul_05_1518,2-25_cond_decay_EYE-try,2021.2.3,166.04517344565264,
right,0.75,1.0,1,2,0,2,0,1,0,1,0,0,6,6,3,,,,,,,,,,,,,,,5s,1304.3705189749599,1305.3711938149645,1305.3656392179546,None,1306.3646203769604,1307.9468998289667,1306.3646203769604,1307.9468998289667,1307.9468998289667,None,1307.9468998289667,None,space,0.6081012900103815,1307.9468998289667,None,1.5789,1308.6806753609562,None,,,,,,,DEC009,001,2022_Jul_05_1518,2-25_cond_decay_EYE-try,2021.2.3,166.04517344565264,
right,1.0,0.75,0,2,0,2,0,1,0,1,0,0,7,7,4,,,,,,,,,,,,,,,5s,1310.1213265099796,1311.1223367159837,1311.1167452109512,None,1312.116259332979,1315.7283502169885,1312.116259332979,1315.7283502169885,1315.7229599299608,None,1315.7229599299608,None,space,0.4160521070007235,1315.7229599299608,None,3.608,1316.260754272982,None,,,,,,,DEC009,001,2022_Jul_05_1518,2-25_cond_decay_EYE-try,2021.2.3,166.04517344565264,
left,0.75,1.0,0,2,0,2,0,1,0,1,0,0,8,8,2,,,,,,,,,,,,,,,5s,1317.6923361119698,1318.6921983189532,1318.686581300979,None,1319.6857287439634,1322.158507104963,1319.6857287439634,1322.158507104963,1322.1531164890039,None,1322.1531164890039,None,space,0.6418610499822535,1322.1531164890039,None,2.4684,1322.9146771079977,None,,,,,,,DEC009,001,2022_Jul_05_1518,2-25_cond_decay_EYE-try,2021.2.3,166.04517344565264,
right,1.0,0.75,0,2,0,2,0,1,0,1,0,0,9,9,0,,,,,,,,,,,,,,,5s,1324.3511137219612,1325.3525011549937,1325.3467932469794,None,1326.346680558985,1331.086017352005,1326.346680558985,1331.086017352005,1331.086017352005,None,1331.086017352005,None,space,0.38898979302030057,1331.086017352005,None,4.7372,1331.599649546959,None,,,,,,,DEC009,001,2022_Jul_05_1518,2-25_cond_decay_EYE-try,2021.2.3,166.04517344565264,
right,1.0,0.75,0,2,0,2,0,1,0,1,0,1,0,10,8,,,,,,,,,,,,,,,5s,1333.036179216986,1334.0370703189983,1334.024939594965,None,1335.0253987209871,1338.03094813996,1335.0253987209871,1338.03094813996,1338.03094813996,None,1338.03094813996,None,space,0.43607037398032844,1338.03094813996,None,3.0046,1338.5880122800008,None,,,,,,,DEC009,001,2022_Jul_05_1518,2-25_cond_decay_EYE-try,2021.2.3,166.04517344565264,
right,0.75,1.0,1,2,0,2,0,1,0,1,0,1,1,11,3,,,,,,,,,,,,,,,5s,1340.0177383919945,1341.019314116973,1341.0071304719895,None,1342.006881164969,1346.3461388109718,1342.006881164969,1346.3461388109718,1346.3461388109718,None,1346.3461388109718,None,space,0.592872378998436,1346.3461388109718,None,4.3385,1347.0600910079665,None,,,,,,,DEC009,001,2022_Jul_05_1518,2-25_cond_decay_EYE-try,2021.2.3,166.04517344565264,
right,1.0,0.75,0,2,0,2,0,1,0,1,0,1,2,12,0,,,,,,,,,,,,,,,5s,1348.4907333019655,1349.4919448159635,1349.486173036974,None,1350.4859372769715,1351.5832348209806,1350.4859372769715,1351.5832348209806,1351.5832348209806,None,1351.5832348209806,None,None,,1351.5832348209806,None,1.0946,1352.7029143190011,None,,,,,,,DEC009,001,2022_Jul_05_1518,2-25_cond_decay_EYE-try,2021.2.3,166.04517344565264,
right,1.0,0.75,0,2,0,2,0,1,0,1,0,1,3,13,7,,,,,,,,,,,,,,,5s,1354.1328865209944,1355.1337978219963,1355.1217601450044,None,1356.1218268279918,1356.5951042699744,1356.1218268279918,1356.5951042699744,1356.5951042699744,None,1356.5951042699744,None,None,,1356.5951042699744,None,0.4719,1357.7039476149948,None,,,,,,,DEC009,001,2022_Jul_05_1518,2-25_cond_decay_EYE-try,2021.2.3,166.04517344565264,
left,0.75,1.0,0,2,0,2,0,1,0,1,0,1,4,14,5,,,,,,,,,,,,,,,5s,1359.1391656330088,1360.1398055729805,1360.1340473659802,None,1361.1346538619837,1361.7403025599779,1361.1346538619837,1361.7403025599779,1361.7403025599779,None,1361.7403025599779,None,space,0.49471145594725385,1361.7403025599779,None,0.6063,1362.3588640639791,None,,,,,,,DEC009,001,2022_Jul_05_1518,2-25_cond_decay_EYE-try,2021.2.3,166.04517344565264,
right,1.0,0.75,0,2,0,2,0,1,0,1,0,1,5,15,4,,,,,,,,,,,,,,,5s,1363.7951524539967,1364.7948338539572,1364.7882799829822,None,1365.7882127710036,1366.3642346529523,1365.7882127710036,1366.3642346529523,1366.3642346529523,None,1366.3642346529523,None,space,0.4067284750053659,1366.3642346529523,None,0.5717,1366.8899165599723,None,,,,,,,DEC009,001,2022_Jul_05_1518,2-25_cond_decay_EYE-try,2021.2.3,166.04517344565264,
left,0.75,1.0,0,2,0,2,0,1,0,1,0,1,6,16,9,,,,,,,,,,,,,,,5s,1368.3269605799578,1369.327591587964,1369.3155783059774,None,1370.3160850999993,1373.1518135869992,1370.3160850999993,1373.1518135869992,1373.158093361999,None,1373.158093361999,None,space,0.46891307801706716,1373.158093361999,None,2.8365,1373.7526784499642,None,,,,,,,DEC009,001,2022_Jul_05_1518,2-25_cond_decay_EYE-try,2021.2.3,166.04517344565264,
left,1.0,0.75,1,2,0,2,0,1,0,1,0,1,7,17,6,,,,,,,,,,,,,,,5s,1375.1868491919595,1376.1882021059864,1376.182500624971,None,1377.1819683009526,1381.2789677989786,1377.1819683009526,1381.2789677989786,1381.2789677989786,None,1381.2789677989786,None,space,0.396039572020527,1381.2789677989786,None,4.0956,1381.7994901709608,None,,,,,,,DEC009,001,2022_Jul_05_1518,2-25_cond_decay_EYE-try,2021.2.3,166.04517344565264,
left,0.75,1.0,0,2,0,2,0,1,0,1,0,1,8,18,2,,,,,,,,,,,,,,,5s,1383.229695129965,1384.2304882939789,1384.224742978986,None,1385.2252212970052,1386.7448596959584,1385.2252212970052,1386.7448596959584,1386.7384258729871,None,1386.7384258729871,None,space,0.5206004219944589,1386.7384258729871,None,1.5117,1387.3806115089683,None,,,,,,,DEC009,001,2022_Jul_05_1518,2-25_cond_decay_EYE-try,2021.2.3,166.04517344565264,
left,0.75,1.0,0,2,0,2,0,1,0,1,0,1,9,19,1,,,,,,,,,,,,,,,5s,1388.8069277459872,1389.8062999509857,1389.8006760659628,None,1390.8003702909919,1391.7882165010087,1390.8003702909919,1391.7882165010087,1391.7882165010087,None,1391.7882165010087,None,space,0.4228012220119126,1391.7882165010087,None,0.987,1392.3329117939575,None,,,,,,,DEC009,001,2022_Jul_05_1518,2-25_cond_decay_EYE-try,2021.2.3,166.04517344565264,
,,,,2,0,2,0,1,0,1,0,,,,,,,,,,,,,,,,,,,,,,,,,,,,,,,,,,,,,,,,,,,,,DEC009,001,2022_Jul_05_1518,2-25_cond_decay_EYE-try,2021.2.3,166.04517344565264,
right,1.0,0.75,0,2,0,2,0,2,0,2,0,0,0,0,5,,,,,,,,,1393.2304746359587,None,1393.2304746359587,None,1393.2304746359587,None,3s,1396.2113526939647,1397.2121949130087,1397.2001554759918,None,1398.20026255399,1398.4539649259532,1398.20026255399,1398.4539649259532,1398.447409424989,None,1398.447409424989,None,space,0.4196392960147932,1398.447409424989,None,0.2453,1398.9871368529857,None,,,,,,,DEC009,001,2022_Jul_05_1518,2-25_cond_decay_EYE-try,2021.2.3,166.04517344565264,
right,1.0,0.75,0,2,0,2,0,2,0,2,0,0,1,1,6,,,,,,,,,,,,,,,3s,1400.4189195649815,1401.4185195969767,1401.4119495259947,None,1402.4123774030013,1403.9878608239815,1402.4123774030013,1403.9878608239815,1403.9813694109907,None,1403.9813694109907,None,None,,1403.9813694109907,None,1.5669,1405.0971797379898,None,,,,,,,DEC009,001,2022_Jul_05_1518,2-25_cond_decay_EYE-try,2021.2.3,166.04517344565264,
left,0.75,1.0,0,2,0,2,0,2,0,2,0,0,2,2,7,,,,,,,,,,,,,,,3s,1406.5325967359822,1407.5338526819833,1407.527077279985,None,1408.5272107470082,1411.4545643949532,1408.5272107470082,1411.4545643949532,1411.447985870007,None,1411.447985870007,None,space,0.94695828697877,1411.447985870007,None,2.9188,1412.5261053179856,None,,,,,,,DEC009,001,2022_Jul_05_1518,2-25_cond_decay_EYE-try,2021.2.3,166.04517344565264,
right,0.75,1.0,1,2,0,2,0,2,0,2,0,0,3,3,0,,,,,,,,,,,,,,,3s,1413.9569325419725,1414.957595062966,1414.9519996179733,None,1415.952111978957,1416.3028622359852,1415.952111978957,1416.3028622359852,1416.3028622359852,None,1416.3028622359852,None,space,0.4121584089589305,1416.3028622359852,None,0.3505,1416.8353472669842,None,,,,,,,DEC009,001,2022_Jul_05_1518,2-25_cond_decay_EYE-try,2021.2.3,166.04517344565264,
right,1.0,0.75,0,2,0,2,0,2,0,2,0,0,4,4,8,,,,,,,,,,,,,,,3s,1418.2659935649717,1419.2667826269753,1419.2545434219646,None,1420.2542393190088,1423.011983903998,1420.2542393190088,1423.011983903998,1423.011983903998,None,1423.011983903998,None,space,0.5350565990083851,1423.011983903998,None,2.7567,1423.6719755879603,None,,,,,,,DEC009,001,2022_Jul_05_1518,2-25_cond_decay_EYE-try,2021.2.3,166.04517344565264,
left,1.0,0.75,1,2,0,2,0,2,0,2,0,0,5,5,2,,,,,,,,,,,,,,,3s,1425.1140544359805,1426.1155974689755,1426.1087288319832,None,1427.1095525450073,1429.4001049099606,1427.1095525450073,1429.4001049099606,1429.4001049099606,None,1429.4001049099606,None,space,0.9068573999684304,1429.4001049099606,None,2.2911,1430.4287305359612,None,,,,,,,DEC009,001,2022_Jul_05_1518,2-25_cond_decay_EYE-try,2021.2.3,166.04517344565264,
left,0.75,1.0,0,2,0,2,0,2,0,2,0,0,6,6,9,,,,,,,,,,,,,,,3s,1431.8651003039558,1432.8666380209615,1432.8540364679648,None,1433.8539848210057,1435.794166223961,1433.8539848210057,1435.794166223961,1435.794166223961,None,1435.794166223961,None,space,0.3768451189971529,1435.794166223961,None,1.9406,1436.2960347670014,None,,,,,,,DEC009,001,2022_Jul_05_1518,2-25_cond_decay_EYE-try,2021.2.3,166.04517344565264,
left,0.75,1.0,0,2,0,2,0,2,0,2,0,0,7,7,3,,,,,,,,,,,,,,,3s,1437.7334283939563,1438.7336414469755,1438.7269461109536,None,1439.727538948995,1441.6365076609654,1439.727538948995,1441.6365076609654,1441.6365076609654,None,1441.6365076609654,None,space,0.4304429109906778,1441.6365076609654,None,1.9095,1442.193083177961,None,,,,,,,DEC009,001,2022_Jul_05_1518,2-25_cond_decay_EYE-try,2021.2.3,166.04517344565264,
right,1.0,0.75,0,2,0,2,0,2,0,2,0,0,8,8,1,,,,,,,,,,,,,,,3s,1443.63466628897,1444.6361817729776,1444.624161025975,None,1445.6236499709776,1447.436012635997,1445.6236499709776,1447.436012635997,1447.4422183620045,None,1447.4422183620045,None,space,0.5928308189613745,1447.4422183620045,None,1.8131,1448.1558099159738,None,,,,,,,DEC009,001,2022_Jul_05_1518,2-25_cond_decay_EYE-try,2021.2.3,166.04517344565264,
right,1.0,0.75,0,2,0,2,0,2,0,2,0,0,9,9,4,,,,,,,,,,,,,,,3s,1449.5860389849986,1450.587517383974,1450.5817749209818,None,1451.5817637519795,1452.060788076953,1451.5817637519795,1452.060788076953,1452.060788076953,None,1452.060788076953,None,space,0.41423294198466465,1452.060788076953,None,0.4741,1452.598705106997,None,,,,,,,DEC009,001,2022_Jul_05_1518,2-25_cond_decay_EYE-try,2021.2.3,166.04517344565264,
left,0.75,1.0,0,2,0,2,0,2,0,2,0,1,0,10,9,,,,,,,,,,,,,,,3s,1454.0349167409586,1455.0356346569606,1455.0239311009645,None,1456.0236819509882,1457.1934286729665,1456.0236819509882,1457.1934286729665,1457.1934286729665,None,1457.1934286729665,None,space,0.45760558400070295,1457.1934286729665,None,1.1675,1457.7759057309595,None,,,,,,,DEC009,001,2022_Jul_05_1518,2-25_cond_decay_EYE-try,2021.2.3,166.04517344565264,
right,1.0,0.75,0,2,0,2,0,2,0,2,0,1,1,11,1,,,,,,,,,,,,,,,3s,1459.2183430430014,1460.2175117759616,1460.2119177769637,None,1461.2112860189518,1462.8295626909821,1461.2112860189518,1462.8295626909821,1462.824180872005,None,1462.824180872005,None,space,0.6108423950499855,1462.824180872005,None,1.6161,1463.5560395259527,None,,,,,,,DEC009,001,2022_Jul_05_1518,2-25_cond_decay_EYE-try,2021.2.3,166.04517344565264,
right,1.0,0.75,0,2,0,2,0,2,0,2,0,1,2,12,8,,,,,,,,,,,,,,,3s,1464.9859843360027,1465.9874748609727,1465.975123022974,None,1466.975064861006,1468.5081917409552,1466.975064861006,1468.5081917409552,1468.5081917409552,None,1468.5081917409552,None,None,,1468.5081917409552,None,1.5303,1469.6235761459684,None,,,,,,,DEC009,001,2022_Jul_05_1518,2-25_cond_decay_EYE-try,2021.2.3,166.04517344565264,
right,1.0,0.75,0,2,0,2,0,2,0,2,0,1,3,13,4,,,,,,,,,,,,,,,3s,1471.0529391339514,1472.0535656169523,1472.0477628259687,1475.114227967977,1473.0482422749628,1474.1263453869615,1473.0482422749628,1474.1263453869615,1474.119874189957,None,1474.119874189957,None,None,,1474.119874189957,None,1.0675,1475.2286319980049,None,,,,,,,DEC009,001,2022_Jul_05_1518,2-25_cond_decay_EYE-try,2021.2.3,166.04517344565264,
left,0.75,1.0,0,2,0,2,0,2,0,2,0,1,4,14,7,,,,,,,,,,,,,,,3s,1476.6665261239978,1477.6660614520079,1477.6604109900072,None,1478.659921575978,1480.682846968004,1478.659921575978,1480.682846968004,1480.6772723469767,None,1480.6772723469767,None,space,0.4217357079614885,1480.6772723469767,None,2.0161,1481.2282044629683,None,,,,,,,DEC009,001,2022_Jul_05_1518,2-25_cond_decay_EYE-try,2021.2.3,166.04517344565264,
right,1.0,0.75,0,2,0,2,0,2,0,2,0,1,5,15,6,,,,,,,,,,,,,,,3s,1482.6660535589908,1483.6658107229741,1483.6536994579947,None,1484.6541025799816,1487.3509743249742,1484.6541025799816,1487.3509743249742,1487.3509743249742,None,1487.3509743249742,None,None,,1487.3509743249742,None,2.696,1488.4662116440013,None,,,,,,,DEC009,001,2022_Jul_05_1518,2-25_cond_decay_EYE-try,2021.2.3,166.04517344565264,
left,0.75,1.0,0,2,0,2,0,2,0,2,0,1,6,16,3,,,,,,,,,,,,,,,3s,1489.9009471099707,1490.9019183169585,1490.8900767290033,None,1491.8897197140031,1494.1191237969906,1491.8897197140031,1494.1191237969906,1494.1127076409757,None,1494.1127076409757,None,space,0.4183262960286811,1494.1127076409757,None,2.2203,1494.6531203589984,None,,,,,,,DEC009,001,2022_Jul_05_1518,2-25_cond_decay_EYE-try,2021.2.3,166.04517344565264,
left,0.75,1.0,0,2,0,2,0,2,0,2,0,1,7,17,5,,,,,,,,,,,,,,,3s,1496.0843953439617,1497.0835921459948,1497.0778127799858,None,1498.0775278569781,1500.6721363159595,1498.0775278569781,1500.6721363159595,1500.6721363159595,None,1500.6721363159595,None,None,,1500.6721363159595,None,2.5951,1501.787288323976,None,,,,,,,DEC009,001,2022_Jul_05_1518,2-25_cond_decay_EYE-try,2021.2.3,166.04517344565264,
right,0.75,1.0,1,2,0,2,0,2,0,2,0,1,8,18,0,,,,,,,,,,,,,,,3s,1503.2223076279624,1504.2229343139916,1504.2172378139803,None,1505.2175979469903,1508.045705158962,1505.2175979469903,1508.045705158962,1508.040319319989,None,1508.040319319989,None,space,0.41071679000742733,1508.040319319989,None,2.8211,1508.5793385150027,None,,,,,,,DEC009,001,2022_Jul_05_1518,2-25_cond_decay_EYE-try,2021.2.3,166.04517344565264,
left,1.0,0.75,1,2,0,2,0,2,0,2,0,1,9,19,2,,,,,,,,,,,,,,,3s,1510.0038221969735,1511.0048445279826,1510.9992697999696,None,1511.999295593996,1512.2904134839773,1511.999295593996,1512.2904134839773,1512.2904134839773,None,1512.2904134839773,None,space,0.4806230540270917,1512.2904134839773,None,0.2899,1512.894463183009,None,,,,,,,DEC009,001,2022_Jul_05_1518,2-25_cond_decay_EYE-try,2021.2.3,166.04517344565264,
,,,,2,0,2,0,2,0,2,0,,,,,,,,,,,,,,,,,,,,,,,,,,,,,,,,,,,,,,,,,,,,,DEC009,001,2022_Jul_05_1518,2-25_cond_decay_EYE-try,2021.2.3,166.04517344565264,
right,1.0,0.75,0,2,0,2,0,3,0,3,0,0,0,0,4,,,,,,,,,1513.7929693339975,None,1513.7929693339975,None,1513.7929693339975,None,1s,1516.095265942975,1517.095545862976,1517.0837388539803,None,1518.0840585479746,1518.6397939929739,1518.0840585479746,1518.6397939929739,1518.6343051449512,None,1518.6343051449512,None,space,0.4246578110032715,1518.6343051449512,None,0.5475,1519.1800791149726,None,,,,,,,DEC009,001,2022_Jul_05_1518,2-25_cond_decay_EYE-try,2021.2.3,166.04517344565264,
left,1.0,0.75,1,2,0,2,0,3,0,3,0,0,1,1,5,,,,,,,,,,,,,,,1s,1520.616295807995,1521.6168128519785,1521.6051084749633,None,1522.6051129850093,1522.8775882989867,1522.6051129850093,1522.8775882989867,1522.8775882989867,None,1522.8775882989867,None,space,0.46944267698563635,1522.8775882989867,None,0.2708,1523.4707958819927,None,,,,,,,DEC009,001,2022_Jul_05_1518,2-25_cond_decay_EYE-try,2021.2.3,166.04517344565264,
right,1.0,0.75,0,2,0,2,0,3,0,3,0,0,2,2,6,,,,,,,,,,,,,,,1s,1524.9068913679803,1525.90850688098,1525.9017182230018,None,1526.9020511619747,1527.3864821429597,1526.9020511619747,1527.3864821429597,1527.3864821429597,None,1527.3864821429597,None,space,0.42452120600501075,1527.3864821429597,None,0.4825,1527.9304878109833,None,,,,,,,DEC009,001,2022_Jul_05_1518,2-25_cond_decay_EYE-try,2021.2.3,166.04517344565264,
left,0.75,1.0,0,2,0,2,0,3,0,3,0,0,3,3,9,,,,,,,,,,,,,,,1s,1529.3677917429595,1530.368915411993,1530.35593048,None,1531.355794854986,1532.108210603008,1531.355794854986,1532.108210603008,1532.108210603008,None,1532.108210603008,None,space,0.43881844700081274,1532.108210603008,None,0.75,1532.670090872969,None,,,,,,,DEC009,001,2022_Jul_05_1518,2-25_cond_decay_EYE-try,2021.2.3,166.04517344565264,
right,0.75,1.0,1,2,0,2,0,3,0,3,0,0,4,4,7,,,,,,,,,,,,,,,1s,1534.1125508819823,1535.1135938119842,1535.1080285349744,None,1536.1081873689545,1536.4037593039684,1536.1081873689545,1536.4037593039684,1536.3968648429727,None,1536.3968648429727,None,space,0.39010602299822494,1536.3968648429727,None,0.2888,1536.9124468549853,None,,,,,,,DEC009,001,2022_Jul_05_1518,2-25_cond_decay_EYE-try,2021.2.3,166.04517344565264,
left,0.75,1.0,0,2,0,2,0,3,0,3,0,0,5,5,0,,,,,,,,,,,,,,,1s,1538.3551546409726,1539.3558349259547,1539.3500572309713,None,1540.3497390470002,1540.611156094994,1540.3497390470002,1540.611156094994,1540.611156094994,None,1540.611156094994,None,space,0.42387155001051724,1540.611156094994,None,0.2595,1541.155606780958,None,,,,,,,DEC009,001,2022_Jul_05_1518,2-25_cond_decay_EYE-try,2021.2.3,166.04517344565264,
left,0.75,1.0,0,2,0,2,0,3,0,3,0,0,6,6,1,,,,,,,,,,,,,,,1s,1542.591175909969,1543.5922316669603,1543.5804964809795,None,1544.580187538988,1545.4045113869943,1544.580187538988,1545.4045113869943,1545.4045113869943,None,1545.4045113869943,None,space,0.36651157902088016,1545.4045113869943,None,0.8209,1545.894643484964,None,,,,,,,DEC009,001,2022_Jul_05_1518,2-25_cond_decay_EYE-try,2021.2.3,166.04517344565264,
right,1.0,0.75,0,2,0,2,0,3,0,3,0,0,7,7,8,,,,,,,,,,,,,,,1s,1547.324532255996,1548.3255972599727,1548.3199505200027,None,1549.3196891169646,1550.1320121680037,1549.3196891169646,1550.1320121680037,1550.1320121680037,None,1550.1320121680037,None,space,0.7670263549662195,1550.1320121680037,None,0.8078,1551.0220904569724,None,,,,,,,DEC009,001,2022_Jul_05_1518,2-25_cond_decay_EYE-try,2021.2.3,166.04517344565264,
right,1.0,0.75,0,2,0,2,0,3,0,3,0,0,8,8,3,,,,,,,,,,,,,,,1s,1552.4456436049659,1553.4465641689603,1553.4408615980064,None,1554.4412142239744,1555.2223127209581,1554.4412142239744,1555.2223127209581,1555.2169706499553,None,1555.2169706499553,None,space,0.5060199539875612,1555.2169706499553,None,0.7763,1555.8455012500053,None,,,,,,,DEC009,001,2022_Jul_05_1518,2-25_cond_decay_EYE-try,2021.2.3,166.04517344565264,
left,0.75,1.0,0,2,0,2,0,3,0,3,0,0,9,9,2,,,,,,,,,,,,,,,1s,1557.2826803799835,1558.2834980089683,1558.2707203080063,None,1559.277024096984,1559.8042218759656,1559.277024096984,1559.8042218759656,1559.798819544958,None,1559.798819544958,None,space,0.3722076049889438,1559.798819544958,None,0.5251,1560.2938854779932,None,,,,,,,DEC009,001,2022_Jul_05_1518,2-25_cond_decay_EYE-try,2021.2.3,166.04517344565264,
right,1.0,0.75,0,2,0,2,0,3,0,3,0,1,0,10,8,,,,,,,,,,,,,,,1s,1561.7322552059777,1562.731471451989,1562.7257326819818,None,1563.7259778080042,1564.1363210009877,1563.7259778080042,1564.1363210009877,1564.1300220419653,None,1564.1300220419653,None,space,0.40102331794332713,1564.1300220419653,None,0.4052,1564.651317206968,None,,,,,,,DEC009,001,2022_Jul_05_1518,2-25_cond_decay_EYE-try,2021.2.3,166.04517344565264,
left,0.75,1.0,0,2,0,2,0,3,0,3,0,1,1,11,0,,,,,,,,,,,,,,,1s,1566.0824298359803,1567.0827499739826,1567.0769415789982,None,1568.077436372987,1568.8207528679632,1568.077436372987,1568.8207528679632,1568.8153641769895,None,1568.8153641769895,None,space,0.43568273197161034,1568.8153641769895,None,0.7359,1569.3723152019666,None,,,,,,,DEC009,001,2022_Jul_05_1518,2-25_cond_decay_EYE-try,2021.2.3,166.04517344565264,
right,1.0,0.75,0,2,0,2,0,3,0,3,0,1,2,12,6,,,,,,,,,,,,,,,1s,1570.80890133098,1571.8105041149538,1571.7983351679868,None,1572.7986816449556,1573.2285267429543,1572.7986816449556,1573.2285267429543,1573.2285267429543,None,1573.2285267429543,None,space,0.3905226230272092,1573.2285267429543,None,0.4283,1573.7421049549594,None,,,,,,,DEC009,001,2022_Jul_05_1518,2-25_cond_decay_EYE-try,2021.2.3,166.04517344565264,
right,1.0,0.75,0,2,0,2,0,3,0,3,0,1,3,13,4,,,,,,,,,,,,,,,1s,1575.179142577981,1576.1797533310018,1576.1741423889762,None,1577.1735368489753,1578.0462664669612,1577.1735368489753,1578.0462664669612,1578.040913817007,None,1578.040913817007,None,space,0.42612156295217574,1578.040913817007,None,0.8687,1578.591426961997,None,,,,,,,DEC009,001,2022_Jul_05_1518,2-25_cond_decay_EYE-try,2021.2.3,166.04517344565264,
left,0.75,1.0,0,2,0,2,0,3,0,3,0,1,4,14,1,,,,,,,,,,,,,,,1s,1580.0335830429685,1581.034155954956,1581.0224036789732,None,1582.0222290019738,1582.6106466889614,1582.0222290019738,1582.6106466889614,1582.6106466889614,None,1582.6106466889614,None,space,0.36038142000325024,1582.6106466889614,None,0.5877,1583.093543913972,None,,,,,,,DEC009,001,2022_Jul_05_1518,2-25_cond_decay_EYE-try,2021.2.3,166.04517344565264,
left,1.0,0.75,1,2,0,2,0,3,0,3,0,1,5,15,5,,,,,,,,,,,,,,,1s,1584.525560848997,1585.5256553329527,1585.519929047965,None,1586.519078422978,1586.9070044509717,1586.519078422978,1586.9070044509717,1586.9070044509717,None,1586.9070044509717,None,space,0.4400373080279678,1586.9070044509717,None,0.3875,1587.4699560059817,None,,,,,,,DEC009,001,2022_Jul_05_1518,2-25_cond_decay_EYE-try,2021.2.3,166.04517344565264,
right,1.0,0.75,0,2,0,2,0,3,0,3,0,1,6,16,3,,,,,,,,,,,,,,,1s,1588.9058677289868,1589.906717157981,1589.8946942939656,None,1590.8947739469586,1591.6583002269617,1590.8947739469586,1591.6583002269617,1591.6583002269617,None,1591.6583002269617,None,space,0.4807452150271274,1591.6583002269617,None,0.765,1592.2635406139889,None,,,,,,,DEC009,001,2022_Jul_05_1518,2-25_cond_decay_EYE-try,2021.2.3,166.04517344565264,
left,0.75,1.0,0,2,0,2,0,3,0,3,0,1,7,17,9,,,,,,,,,,,,,,,1s,1593.705566775985,1594.7074468769715,1594.6946255469811,None,1595.6953578039538,1595.8711547359708,1595.6953578039538,1595.8711547359708,1595.8711547359708,None,1595.8711547359708,None,space,0.41189251298783347,1595.8711547359708,None,0.1756,1596.4026248320006,None,,,,,,,DEC009,001,2022_Jul_05_1518,2-25_cond_decay_EYE-try,2021.2.3,166.04517344565264,
