attn_cue,left_ob,right_ob,congruent,runs.thisRepN,runs.thisTrialN,runs.thisN,runs.thisIndex,blocks.thisRepN,blocks.thisTrialN,blocks.thisN,blocks.thisIndex,trials.thisRepN,trials.thisTrialN,trials.thisN,trials.thisIndex,welcome.started,welcome.stopped,text_2.started,text_2.stopped,init_key_resp.keys,init_key_resp.rt,init_key_resp.started,init_key_resp.stopped,text_3.started,text_3.stopped,text_4.started,text_4.stopped,text_5.started,text_5.stopped,block_num,texter.started,texter.stopped,cross.started,cross.stopped,left_star.started,left_star.stopped,right_star.started,right_star.stopped,left_2.started,left_2.stopped,right_2.started,right_2.stopped,key_resp.keys,key_resp.started,key_resp.stopped,Rand Tim,text.started,text.stopped,key_resp.rt,end.started,end.stopped,text_6.started,text_6.stopped,text_7.started,text_7.stopped,participant,session,date,expName,psychopyVersion,frameRate,
,,,,,,,,,,,,,,,,107.02600465901196,None,107.02600465901196,None,space,2.8648584299953654,107.02600465901196,None,,,,,,,,,,,,,,,,,,,,,,,,,,,,,,,,,DEC013,001,2022_Aug_23_1327,2-25_cond_decay_EYE-try,2021.2.3,120.1773708384012,
right,1.0,0.75,0,0,0,0,0,0,0,0,0,0,0,0,5,,,,,,,,,109.9172785920091,None,109.9172785920091,None,109.9172785920091,None,5s,116.50918609299697,117.51039294805378,117.4937252009986,None,118.49334103707224,119.8681769220857,118.49334103707224,119.8681769220857,119.8681769220857,None,119.8681769220857,None,None,119.8681769220857,None,1.3747,121.00122142198961,None,,,,,,,,DEC013,001,2022_Aug_23_1327,2-25_cond_decay_EYE-try,2021.2.3,120.1773708384012,
right,1.0,0.75,0,0,0,0,0,0,0,0,0,0,1,1,3,,,,,,,,,,,,,,,5s,122.04270291409921,123.04328677302692,123.03528492001351,None,124.03562877199147,124.7517435210757,124.03562877199147,124.7517435210757,124.7517435210757,None,124.7517435210757,None,space,124.7517435210757,None,0.7151,125.37591520603746,None,0.483111580950208,,,,,,,DEC013,001,2022_Aug_23_1327,2-25_cond_decay_EYE-try,2021.2.3,120.1773708384012,
left,0.75,1.0,0,0,0,0,0,0,0,0,0,0,2,2,9,,,,,,,,,,,,,,,5s,126.42531005304772,127.42733736603986,127.41827635699883,None,128.41914674302097,131.72702839109115,128.41914674302097,131.72702839109115,131.71899027109612,None,131.71899027109612,None,space,131.71899027109612,None,3.3034,132.1335599560989,None,0.2758115439210087,,,,,,,DEC013,001,2022_Aug_23_1327,2-25_cond_decay_EYE-try,2021.2.3,120.1773708384012,
left,1.0,0.75,1,0,0,0,0,0,0,0,0,0,3,3,7,,,,,,,,,,,,,,,5s,133.1858105380088,134.18519621307496,134.17707601608709,None,135.17715472599957,139.25199195509776,135.17715472599957,139.25199195509776,139.2432932939846,None,139.2432932939846,None,space,139.2432932939846,None,4.0697,139.7428285110509,None,0.36750709800980985,,,,,,,DEC013,001,2022_Aug_23_1327,2-25_cond_decay_EYE-try,2021.2.3,120.1773708384012,
right,0.75,1.0,1,0,0,0,0,0,0,0,0,0,4,4,1,,,,,,,,,,,,,,,5s,140.79429925302975,141.7939105820842,141.78574226703495,None,142.78580465202685,147.46899000101257,142.78580465202685,147.46899000101257,147.4608889130177,None,147.4608889130177,None,space,147.4608889130177,None,4.6761,147.9590915190056,None,0.3659128040308133,,,,,,,DEC013,001,2022_Aug_23_1327,2-25_cond_decay_EYE-try,2021.2.3,120.1773708384012,
right,1.0,0.75,0,0,0,0,0,0,0,0,0,0,5,5,2,,,,,,,,,,,,,,,5s,149.009089166997,150.01112427306361,150.0019077199977,None,150.99371630209498,155.41058383404743,150.99371630209498,155.41058383404743,155.41058383404743,None,155.41058383404743,None,space,155.41058383404743,None,4.4139,155.85077143704984,None,0.3042367330053821,,,,,,,DEC013,001,2022_Aug_23_1327,2-25_cond_decay_EYE-try,2021.2.3,120.1773708384012,
right,1.0,0.75,0,0,0,0,0,0,0,0,0,0,6,6,4,,,,,,,,,,,,,,,5s,156.90060618403368,157.9020389720099,157.89429020008538,None,158.8941427390091,160.2105854860274,158.8941427390091,160.2105854860274,160.2105854860274,None,160.2105854860274,None,space,160.2105854860274,None,1.3169,160.6860377350822,None,0.34427815303206444,,,,,,,DEC013,001,2022_Aug_23_1327,2-25_cond_decay_EYE-try,2021.2.3,120.1773708384012,
left,0.75,1.0,0,0,0,0,0,0,0,0,0,0,7,7,8,,,,,,,,,,,,,,,5s,161.74415985599626,162.74401642999146,162.73599656508304,None,163.7354500060901,165.97715826903004,163.7354500060901,165.97715826903004,165.97715826903004,None,165.97715826903004,None,space,165.97715826903004,None,2.2399,166.38503967202269,None,0.2736790219787508,,,,,,,DEC013,001,2022_Aug_23_1327,2-25_cond_decay_EYE-try,2021.2.3,120.1773708384012,
left,0.75,1.0,0,0,0,0,0,0,0,0,0,0,8,8,0,,,,,,,,,,,,,,,5s,167.4349281390896,168.43600916699506,168.43600916699506,None,169.43572766601574,169.79398677905556,169.43572766601574,169.79398677905556,169.79398677905556,None,169.79398677905556,None,space,169.79398677905556,None,0.3586,170.35131728404667,None,0.42483551299665123,,,,,,,DEC013,001,2022_Aug_23_1327,2-25_cond_decay_EYE-try,2021.2.3,120.1773708384012,
right,1.0,0.75,0,0,0,0,0,0,0,0,0,0,9,9,6,,,,,,,,,,,,,,,5s,171.40991597005632,172.41037527204026,172.39375618705526,None,173.39456913608592,175.56044257909525,173.39456913608592,175.56044257909525,175.56044257909525,None,175.56044257909525,None,space,175.56044257909525,None,2.1645,175.95991531701293,None,0.2664991830242798,,,,,,,DEC013,001,2022_Aug_23_1327,2-25_cond_decay_EYE-try,2021.2.3,120.1773708384012,
right,1.0,0.75,0,0,0,0,0,0,0,0,0,1,0,10,4,,,,,,,,,,,,,,,5s,177.01012386509683,178.0107031390071,178.00259074405767,None,179.00252106098924,180.7693875740515,179.00252106098924,180.7693875740515,180.76111433503684,None,180.76111433503684,None,space,180.76111433503684,None,1.7637,181.17648435709998,None,0.2818037118995562,,,,,,,DEC013,001,2022_Aug_23_1327,2-25_cond_decay_EYE-try,2021.2.3,120.1773708384012,
left,0.75,1.0,0,0,0,0,0,0,0,0,0,1,1,11,0,,,,,,,,,,,,,,,5s,182.23442130407784,183.23592139803804,183.2278013949981,None,184.2272834040923,187.9024994970532,184.2272834040923,187.9024994970532,187.89458999200724,None,187.89458999200724,None,space,187.89458999200724,None,3.6693,188.27765728801023,None,0.2522066899109632,,,,,,,DEC013,001,2022_Aug_23_1327,2-25_cond_decay_EYE-try,2021.2.3,120.1773708384012,
left,1.0,0.75,1,0,0,0,0,0,0,0,0,1,2,12,7,,,,,,,,,,,,,,,5s,189.3366028009914,190.33651769009884,190.3275618290063,None,191.32817758608144,191.90275966306217,191.32817758608144,191.90275966306217,191.89475896698423,None,191.89475896698423,None,space,191.89475896698423,None,0.5714,192.4612641329877,None,0.43604632990900427,,,,,,,DEC013,001,2022_Aug_23_1327,2-25_cond_decay_EYE-try,2021.2.3,120.1773708384012,
right,0.75,1.0,1,0,0,0,0,0,0,0,0,1,3,13,1,,,,,,,,,,,,,,,5s,193.5177554260008,194.51943381002638,194.51155248307623,None,195.51114414201584,196.55247491109185,195.51114414201584,196.55247491109185,196.55247491109185,None,196.55247491109185,None,space,196.55247491109185,None,1.0353,197.0262944700662,None,0.33833139203488827,,,,,,,DEC013,001,2022_Aug_23_1327,2-25_cond_decay_EYE-try,2021.2.3,120.1773708384012,
right,1.0,0.75,0,0,0,0,0,0,0,0,0,1,4,14,3,,,,,,,,,,,,,,,5s,198.08468488708604,199.0864278820809,199.06986015406437,None,200.06934925704263,201.7447667850647,200.06934925704263,201.7447667850647,201.7447667850647,None,201.7447667850647,None,space,201.7447667850647,None,1.6712,202.18487864802592,None,0.3061177380150184,,,,,,,DEC013,001,2022_Aug_23_1327,2-25_cond_decay_EYE-try,2021.2.3,120.1773708384012,
right,1.0,0.75,0,0,0,0,0,0,0,0,0,1,5,15,6,,,,,,,,,,,,,,,5s,203.24362856906373,204.24435254000127,204.22794063400943,None,205.22814766305964,209.16906937898602,205.22814766305964,209.16906937898602,209.16906937898602,None,209.16906937898602,None,space,209.16906937898602,None,3.9397,209.5431927900063,None,0.24178287899121642,,,,,,,DEC013,001,2022_Aug_23_1327,2-25_cond_decay_EYE-try,2021.2.3,120.1773708384012,
left,0.75,1.0,0,0,0,0,0,0,0,0,0,1,6,16,8,,,,,,,,,,,,,,,5s,210.60191120300442,211.60330482700374,211.59435237909202,None,212.59468138904776,216.1117283339845,212.59468138904776,216.1117283339845,216.1117283339845,None,216.1117283339845,None,space,216.1117283339845,None,3.5167,216.46984424302354,None,0.2270640479400754,,,,,,,DEC013,001,2022_Aug_23_1327,2-25_cond_decay_EYE-try,2021.2.3,120.1773708384012,
right,1.0,0.75,0,0,0,0,0,0,0,0,0,1,7,17,2,,,,,,,,,,,,,,,5s,217.52704408206046,218.52788873307873,218.51959601102863,None,219.51995414402336,220.64441793004517,219.51995414402336,220.64441793004517,220.64441793004517,None,220.64441793004517,None,space,220.64441793004517,None,1.1193,221.1113065870013,None,0.334391474025324,,,,,,,DEC013,001,2022_Aug_23_1327,2-25_cond_decay_EYE-try,2021.2.3,120.1773708384012,
left,0.75,1.0,0,0,0,0,0,0,0,0,0,1,8,18,5,,,,,,,,,,,,,,,5s,222.17677448608447,223.17815748800058,223.17017532209866,None,224.16993673809338,225.31953147798777,224.16993673809338,225.31953147798777,225.31953147798777,None,225.31953147798777,None,space,225.31953147798777,None,1.1502,225.75965209805872,None,0.3073552770074457,,,,,,,DEC013,001,2022_Aug_23_1327,2-25_cond_decay_EYE-try,2021.2.3,120.1773708384012,
left,0.75,1.0,0,0,0,0,0,0,0,0,0,1,9,19,9,,,,,,,,,,,,,,,5s,226.81046969699673,227.81110710999928,227.8032197559951,None,228.80289836903103,231.60276141099166,228.80289836903103,231.60276141099166,231.60276141099166,None,231.60276141099166,None,space,231.60276141099166,None,2.7987,232.4348682780983,None,0.6960436269873753,,,,,,,DEC013,001,2022_Aug_23_1327,2-25_cond_decay_EYE-try,2021.2.3,120.1773708384012,
,,,,0,0,0,0,0,0,0,0,,,,,,,,,,,,,,,,,,,,,,,,,,,,,,,,,,,,,,,,,,,,,DEC013,001,2022_Aug_23_1327,2-25_cond_decay_EYE-try,2021.2.3,120.1773708384012,
left,0.75,1.0,0,0,0,0,0,1,0,1,0,0,0,0,1,,,,,,,,,233.327099450049,None,233.327099450049,None,233.327099450049,None,1s,240.83500755007844,241.83677269809414,241.8286510250764,None,242.82873116608243,243.02790105505846,242.82873116608243,243.02790105505846,243.01984463003464,None,243.01984463003464,None,space,243.01984463003464,None,0.1941,243.48577682499308,None,0.3269721249816939,,,,,,,DEC013,001,2022_Aug_23_1327,2-25_cond_decay_EYE-try,2021.2.3,120.1773708384012,
right,0.75,1.0,1,0,0,0,0,1,0,1,0,0,1,1,7,,,,,,,,,,,,,,,1s,244.5366767559899,245.53637494007125,245.52839988807682,None,246.52806999499444,247.09477534203324,246.52806999499444,247.09477534203324,247.0866879010573,None,247.0866879010573,None,space,247.0866879010573,None,0.5603,247.4605904830387,None,0.23621142096817493,,,,,,,DEC013,001,2022_Aug_23_1327,2-25_cond_decay_EYE-try,2021.2.3,120.1773708384012,
right,1.0,0.75,0,0,0,0,0,1,0,1,0,0,2,2,6,,,,,,,,,,,,,,,1s,248.512080886052,249.51195932202972,249.50318604102358,None,250.5037162710214,251.47830267599784,250.5037162710214,251.47830267599784,251.47036122600548,None,251.47036122600548,None,space,251.47036122600548,None,0.969,251.84543885407038,None,0.24445740308146924,,,,,,,DEC013,001,2022_Aug_23_1327,2-25_cond_decay_EYE-try,2021.2.3,120.1773708384012,
left,0.75,1.0,0,0,0,0,0,1,0,1,0,0,3,3,3,,,,,,,,,,,,,,,1s,252.91106302908156,253.9114254200831,253.90333860507235,None,254.89476304803975,255.31185744109098,254.89476304803975,255.31185744109098,255.3196977720363,None,255.3196977720363,None,space,255.3196977720363,None,0.4184,255.6852964940481,None,0.23512722901068628,,,,,,,DEC013,001,2022_Aug_23_1327,2-25_cond_decay_EYE-try,2021.2.3,120.1773708384012,
right,1.0,0.75,0,0,0,0,0,1,0,1,0,0,4,4,8,,,,,,,,,,,,,,,1s,256.7516488090623,257.75371159706265,257.74545800103806,None,258.7450407000724,259.67892850900535,258.7450407000724,259.67892850900535,259.67892850900535,None,259.67892850900535,None,space,259.67892850900535,None,0.9335,260.03524935105816,None,0.21989061799831688,,,,,,,DEC013,001,2022_Aug_23_1327,2-25_cond_decay_EYE-try,2021.2.3,120.1773708384012,
left,1.0,0.75,1,0,0,0,0,1,0,1,0,0,5,5,9,,,,,,,,,,,,,,,1s,261.0939593920484,262.095529895043,262.0867054400733,None,263.08644720504526,263.3200922399992,263.08644720504526,263.3200922399992,263.3200922399992,None,263.3200922399992,None,space,263.3200922399992,None,0.2327,263.7440698330756,None,0.2907446180470288,,,,,,,DEC013,001,2022_Aug_23_1327,2-25_cond_decay_EYE-try,2021.2.3,120.1773708384012,
right,1.0,0.75,0,0,0,0,0,1,0,1,0,0,6,6,0,,,,,,,,,,,,,,,1s,264.794071292039,265.79554160905536,265.7866561760893,None,266.7870528950589,267.49561745207757,266.7870528950589,267.49561745207757,267.49561745207757,None,267.49561745207757,None,space,267.49561745207757,None,0.7081,267.8689880220918,None,0.23519151494838297,,,,,,,DEC013,001,2022_Aug_23_1327,2-25_cond_decay_EYE-try,2021.2.3,120.1773708384012,
left,0.75,1.0,0,0,0,0,0,1,0,1,0,0,7,7,2,,,,,,,,,,,,,,,1s,268.92767253902275,269.9287797079887,269.9122595010558,None,270.91226524603553,271.16991721699014,270.91226524603553,271.16991721699014,271.16991721699014,None,271.16991721699014,None,space,271.16991721699014,None,0.2532,271.6022356200265,None,0.29690714401658624,,,,,,,DEC013,001,2022_Aug_23_1327,2-25_cond_decay_EYE-try,2021.2.3,120.1773708384012,
right,1.0,0.75,0,0,0,0,0,1,0,1,0,0,8,8,5,,,,,,,,,,,,,,,1s,272.660666099051,273.66153595305514,273.64457957609557,None,274.6454970710911,275.5956528229872,274.6454970710911,275.5956528229872,275.5867043620674,None,275.5867043620674,None,space,275.5867043620674,None,0.9426,275.9774291100912,None,0.2562048389809206,,,,,,,DEC013,001,2022_Aug_23_1327,2-25_cond_decay_EYE-try,2021.2.3,120.1773708384012,
left,0.75,1.0,0,0,0,0,0,1,0,1,0,0,9,9,4,,,,,,,,,,,,,,,1s,277.0357901250245,278.03742841701023,278.0283137729857,None,279.0284621900646,279.6873418870382,279.0284621900646,279.6873418870382,279.6873418870382,None,279.6873418870382,None,space,279.6873418870382,None,0.6583,280.10329420806374,None,0.2835576389916241,,,,,,,DEC013,001,2022_Aug_23_1327,2-25_cond_decay_EYE-try,2021.2.3,120.1773708384012,
right,1.0,0.75,0,0,0,0,0,1,0,1,0,1,0,10,6,,,,,,,,,,,,,,,1s,281.16942929907236,282.17023831699044,282.16207040904555,None,283.16142220504116,283.803787770099,283.16142220504116,283.803787770099,283.79567018605303,None,283.79567018605303,None,space,283.79567018605303,None,0.6379,284.1778849940747,None,0.2472336469218135,,,,,,,DEC013,001,2022_Aug_23_1327,2-25_cond_decay_EYE-try,2021.2.3,120.1773708384012,
left,0.75,1.0,0,0,0,0,0,1,0,1,0,1,1,11,1,,,,,,,,,,,,,,,1s,285.2361896990333,286.23742771998513,286.2283299000701,None,287.2281928299926,287.9121596850455,287.2281928299926,287.9121596850455,287.9039463100489,None,287.9039463100489,None,space,287.9039463100489,None,0.6798,288.262137265061,None,0.2268688379554078,,,,,,,DEC013,001,2022_Aug_23_1327,2-25_cond_decay_EYE-try,2021.2.3,120.1773708384012,
right,1.0,0.75,0,0,0,0,0,1,0,1,0,1,2,12,8,,,,,,,,,,,,,,,1s,289.31932925304864,290.32032182603143,290.31214136304334,None,291.3119462489849,291.7872363390634,291.3119462489849,291.7872363390634,291.77921104209963,None,291.77921104209963,None,space,291.77921104209963,None,0.4691,292.21057117905,None,0.29560375306755304,,,,,,,DEC013,001,2022_Aug_23_1327,2-25_cond_decay_EYE-try,2021.2.3,120.1773708384012,
right,1.0,0.75,0,0,0,0,0,1,0,1,0,1,3,13,0,,,,,,,,,,,,,,,1s,293.2611669910839,294.2621002950473,294.25404627702665,None,295.2542050021002,295.8536887780065,295.2542050021002,295.8536887780065,295.8536887780065,None,295.8536887780065,None,space,295.8536887780065,None,0.5989,296.24564224807546,None,0.26111465098802,,,,,,,DEC013,001,2022_Aug_23_1327,2-25_cond_decay_EYE-try,2021.2.3,120.1773708384012,
left,0.75,1.0,0,0,0,0,0,1,0,1,0,1,4,14,3,,,,,,,,,,,,,,,1s,297.30284139409196,298.3040351460222,298.2960139660863,None,299.29507301200647,300.087193479063,299.29507301200647,300.087193479063,300.09504858008586,None,300.09504858008586,None,space,300.09504858008586,None,0.7931,300.452063776087,None,0.2197667279979214,,,,,,,DEC013,001,2022_Aug_23_1327,2-25_cond_decay_EYE-try,2021.2.3,120.1773708384012,
left,0.75,1.0,0,0,0,0,0,1,0,1,0,1,5,15,4,,,,,,,,,,,,,,,1s,301.5035448730923,302.50419883604627,302.49516394000966,None,303.4953063620487,303.754202428041,303.4953063620487,303.754202428041,303.74552875198424,None,303.74552875198424,None,space,303.74552875198424,None,0.253,304.1694665970281,None,0.28936623909976333,,,,,,,DEC013,001,2022_Aug_23_1327,2-25_cond_decay_EYE-try,2021.2.3,120.1773708384012,
left,1.0,0.75,1,0,0,0,0,1,0,1,0,1,6,16,9,,,,,,,,,,,,,,,1s,305.2195995420916,306.2202672660351,306.21219397801906,None,307.2121306930203,307.487756617018,307.2121306930203,307.487756617018,307.487756617018,None,307.487756617018,None,space,307.487756617018,None,0.2749,307.88612084509805,None,0.2590530440211296,,,,,,,DEC013,001,2022_Aug_23_1327,2-25_cond_decay_EYE-try,2021.2.3,120.1773708384012,
right,0.75,1.0,1,0,0,0,0,1,0,1,0,1,7,17,7,,,,,,,,,,,,,,,1s,308.9440889339894,309.94577384507284,309.93777939106803,None,310.9368106110487,311.47889968007803,310.9368106110487,311.47889968007803,311.47889968007803,None,311.47889968007803,None,space,311.47889968007803,None,0.5427,311.8689876230201,None,0.25192301895003766,,,,,,,DEC013,001,2022_Aug_23_1327,2-25_cond_decay_EYE-try,2021.2.3,120.1773708384012,
left,0.75,1.0,0,0,0,0,0,1,0,1,0,1,8,18,2,,,,,,,,,,,,,,,1s,312.92789972701576,313.92932772100903,313.9121169319842,None,314.91206703404896,315.37093954801094,314.91206703404896,315.37093954801094,315.37093954801094,None,315.37093954801094,None,space,315.37093954801094,None,0.4516,315.7444786609849,None,0.23996603302657604,,,,,,,DEC013,001,2022_Aug_23_1327,2-25_cond_decay_EYE-try,2021.2.3,120.1773708384012,
right,1.0,0.75,0,0,0,0,0,1,0,1,0,1,9,19,5,,,,,,,,,,,,,,,1s,316.795826530084,317.7960628680885,317.78695047902875,None,318.78777149203233,319.52856816898566,318.78777149203233,319.52856816898566,319.52856816898566,None,319.52856816898566,None,space,319.52856816898566,None,0.7392,319.91105324507225,None,0.24225560401100665,,,,,,,DEC013,001,2022_Aug_23_1327,2-25_cond_decay_EYE-try,2021.2.3,120.1773708384012,
,,,,0,0,0,0,1,0,1,0,,,,,,,,,,,,,,,,,,,,,,,,,,,,,,,,,,,,,,,,,,,,,DEC013,001,2022_Aug_23_1327,2-25_cond_decay_EYE-try,2021.2.3,120.1773708384012,
left,0.75,1.0,0,0,0,0,0,2,0,2,0,0,0,0,0,,,,,,,,,320.8027703880798,None,320.8027703880798,None,320.8027703880798,None,3s,324.9697846500203,325.97087173501495,325.96196295006666,None,326.9628670720849,328.8374761349987,326.9628670720849,328.8374761349987,328.8286051230971,None,328.8286051230971,None,space,328.8286051230971,None,1.8747,329.2281715810532,None,0.26222087093628943,,,,,,,DEC013,001,2022_Aug_23_1327,2-25_cond_decay_EYE-try,2021.2.3,120.1773708384012,
left,0.75,1.0,0,0,0,0,0,2,0,2,0,0,1,1,8,,,,,,,,,,,,,,,3s,330.2777614709921,331.27880937606096,331.2708327450091,None,332.2706551840529,333.50425033608917,332.2706551840529,333.50425033608917,333.49604167207144,None,333.49604167207144,None,space,333.49604167207144,None,1.2313,333.88618277409114,None,0.2587823240319267,,,,,,,DEC013,001,2022_Aug_23_1327,2-25_cond_decay_EYE-try,2021.2.3,120.1773708384012,
left,0.75,1.0,0,0,0,0,0,2,0,2,0,0,2,2,4,,,,,,,,,,,,,,,3s,334.9371480930131,335.9377283140784,335.92974872502964,None,336.92874540307093,337.095761656994,336.92874540307093,337.095761656994,337.095761656994,None,337.095761656994,None,space,337.095761656994,None,0.164,337.5358688420383,None,0.30714915902353823,,,,,,,DEC013,001,2022_Aug_23_1327,2-25_cond_decay_EYE-try,2021.2.3,120.1773708384012,
left,0.75,1.0,0,0,0,0,0,2,0,2,0,0,3,3,2,,,,,,,,,,,,,,,3s,338.58674035500735,339.58781159098726,339.5706746460637,None,340.57055350905284,341.7124266140163,340.57055350905284,341.7124266140163,341.7124266140163,None,341.7124266140163,None,space,341.7124266140163,None,1.1382,342.087297577993,None,0.24240550096146762,,,,,,,DEC013,001,2022_Aug_23_1327,2-25_cond_decay_EYE-try,2021.2.3,120.1773708384012,
left,0.75,1.0,0,0,0,0,0,2,0,2,0,0,4,4,9,,,,,,,,,,,,,,,3s,343.1442771460861,344.1459033130668,344.1459033130668,None,345.1457180290017,346.33734102000017,345.1457180290017,346.33734102000017,346.329452575068,None,346.329452575068,None,space,346.329452575068,None,1.1915,346.7193410320906,None,0.2573969130171463,,,,,,,DEC013,001,2022_Aug_23_1327,2-25_cond_decay_EYE-try,2021.2.3,120.1773708384012,
right,1.0,0.75,0,0,0,0,0,2,0,2,0,0,5,5,6,,,,,,,,,,,,,,,3s,347.7780295810662,348.77951926505193,348.7713989940239,None,349.77102238405496,352.7047045400832,349.77102238405496,352.7047045400832,352.69587994902395,None,352.69587994902395,None,space,352.69587994902395,None,2.9288,353.10302240704186,None,0.26704527402762324,,,,,,,DEC013,001,2022_Aug_23_1327,2-25_cond_decay_EYE-try,2021.2.3,120.1773708384012,
right,1.0,0.75,0,0,0,0,0,2,0,2,0,0,6,6,5,,,,,,,,,,,,,,,3s,354.15260080306325,355.15453719499055,355.14653451310005,None,356.1460382520454,357.0625420700526,356.1460382520454,357.0625420700526,357.0625420700526,None,357.0625420700526,None,space,357.0625420700526,None,0.9161,357.544556998997,None,0.3482951479963958,,,,,,,DEC013,001,2022_Aug_23_1327,2-25_cond_decay_EYE-try,2021.2.3,120.1773708384012,
left,1.0,0.75,1,0,0,0,0,2,0,2,0,0,7,7,7,,,,,,,,,,,,,,,3s,358.60333087900653,359.6045135940658,359.5874448190443,None,360.58746001601685,361.65452624007594,360.58746001601685,361.65452624007594,361.65452624007594,None,361.65452624007594,None,space,361.65452624007594,None,1.0665,362.0443554080557,None,0.2522948939586058,,,,,,,DEC013,001,2022_Aug_23_1327,2-25_cond_decay_EYE-try,2021.2.3,120.1773708384012,
right,1.0,0.75,0,0,0,0,0,2,0,2,0,0,8,8,3,,,,,,,,,,,,,,,3s,363.1028903879924,364.1044553560205,364.08779258001596,None,365.08830786298495,366.32989386608824,365.08830786298495,366.32989386608824,366.32989386608824,None,366.32989386608824,None,space,366.32989386608824,None,1.2402,366.71117168699857,None,0.24902010196819901,,,,,,,DEC013,001,2022_Aug_23_1327,2-25_cond_decay_EYE-try,2021.2.3,120.1773708384012,
right,0.75,1.0,1,0,0,0,0,2,0,2,0,0,9,9,1,,,,,,,,,,,,,,,3s,367.7615713230334,368.76305333408527,368.7541826410452,None,369.762791982037,372.32079303101636,369.762791982037,372.32079303101636,372.3124094849918,None,372.3124094849918,None,space,372.3124094849918,None,2.5551,372.6946765950415,None,0.2504968160064891,,,,,,,DEC013,001,2022_Aug_23_1327,2-25_cond_decay_EYE-try,2021.2.3,120.1773708384012,
right,1.0,0.75,0,0,0,0,0,2,0,2,0,1,0,10,0,,,,,,,,,,,,,,,3s,373.7467864480568,374.7461261280114,374.7378664970165,None,375.7376889750594,376.4541774960235,375.7376889750594,376.4541774960235,376.4541774960235,None,376.4541774960235,None,space,376.4541774960235,None,0.7132,377.0199747160077,None,0.42865624895785004,,,,,,,DEC013,001,2022_Aug_23_1327,2-25_cond_decay_EYE-try,2021.2.3,120.1773708384012,
right,1.0,0.75,0,0,0,0,0,2,0,2,0,1,1,11,5,,,,,,,,,,,,,,,3s,378.0701261990471,379.07125718402676,379.06306206504814,None,380.0630122490693,380.5796788780717,380.0630122490693,380.5796788780717,380.5715272760717,None,380.5715272760717,None,space,380.5715272760717,None,0.5098,381.0635011270642,None,0.35930482600815594,,,,,,,DEC013,001,2022_Aug_23_1327,2-25_cond_decay_EYE-try,2021.2.3,120.1773708384012,
left,1.0,0.75,1,0,0,0,0,2,0,2,0,1,2,12,7,,,,,,,,,,,,,,,3s,382.12820004601963,383.1301562580047,383.12094374606386,None,384.1210458090063,384.46317918703426,384.1210458090063,384.46317918703426,384.45514133607503,None,384.45514133607503,None,space,384.45514133607503,None,0.3365,384.90343019203283,None,0.31576652091462165,,,,,,,DEC013,001,2022_Aug_23_1327,2-25_cond_decay_EYE-try,2021.2.3,120.1773708384012,
left,0.75,1.0,0,0,0,0,0,2,0,2,0,1,3,13,2,,,,,,,,,,,,,,,3s,385.9531675800681,386.95519928704016,386.9465999280801,None,387.93777813902125,388.8718302809866,387.93777813902125,388.8718302809866,388.8718302809866,None,388.8718302809866,None,space,388.8718302809866,None,0.9275,389.2465850850567,None,0.243001057067886,,,,,,,DEC013,001,2022_Aug_23_1327,2-25_cond_decay_EYE-try,2021.2.3,120.1773708384012,
right,1.0,0.75,0,0,0,0,0,2,0,2,0,1,4,14,3,,,,,,,,,,,,,,,3s,390.3051022409927,391.30503970209975,391.29689913406037,None,392.29687266005203,393.36311623908114,392.29687266005203,393.36311623908114,393.35507152206264,None,393.35507152206264,None,space,393.35507152206264,None,1.064,393.7621766390512,None,0.27177164307795465,,,,,,,DEC013,001,2022_Aug_23_1327,2-25_cond_decay_EYE-try,2021.2.3,120.1773708384012,
left,0.75,1.0,0,0,0,0,0,2,0,2,0,1,5,15,9,,,,,,,,,,,,,,,3s,394.81254269508645,395.8131648610579,395.8050136110978,None,396.8046025080839,397.1044195709983,396.8046025080839,397.1044195709983,397.1044195709983,None,397.1044195709983,None,space,397.1044195709983,None,0.2987,397.50370814302005,None,0.266498550074175,,,,,,,DEC013,001,2022_Aug_23_1327,2-25_cond_decay_EYE-try,2021.2.3,120.1773708384012,
left,0.75,1.0,0,0,0,0,0,2,0,2,0,1,6,16,4,,,,,,,,,,,,,,,3s,398.55407040508,399.554915130022,399.54694277909584,None,400.5469421390444,400.72177682002075,400.5469421390444,400.72177682002075,400.72177682002075,None,400.72177682002075,None,space,400.72177682002075,None,0.1751,401.2114372419892,None,0.3530564740067348,,,,,,,DEC013,001,2022_Aug_23_1327,2-25_cond_decay_EYE-try,2021.2.3,120.1773708384012,
left,0.75,1.0,0,0,0,0,0,2,0,2,0,1,7,17,8,,,,,,,,,,,,,,,3s,402.26197213004343,403.2631659170147,403.2552005420439,None,404.2544868690893,405.05505086504854,404.2544868690893,405.05505086504854,405.05505086504854,None,405.05505086504854,None,space,405.05505086504854,None,0.8015,405.42971074802335,None,0.24373533797916025,,,,,,,DEC013,001,2022_Aug_23_1327,2-25_cond_decay_EYE-try,2021.2.3,120.1773708384012,
right,1.0,0.75,0,0,0,0,0,2,0,2,0,1,8,18,6,,,,,,,,,,,,,,,3s,406.49497941404115,407.4970190670574,407.4795125850942,None,408.4796232699882,411.0053243970033,408.4796232699882,411.0053243970033,411.0053243970033,None,411.0053243970033,None,space,411.0053243970033,None,2.5217,411.42066747299396,None,0.27750388905406,,,,,,,DEC013,001,2022_Aug_23_1327,2-25_cond_decay_EYE-try,2021.2.3,120.1773708384012,
right,0.75,1.0,1,0,0,0,0,2,0,2,0,1,9,19,1,,,,,,,,,,,,,,,3s,412.47208180709276,413.4719882570207,413.4632191780256,None,414.4635808150051,415.6388700050302,414.4635808150051,415.6388700050302,415.6388700050302,None,415.6388700050302,None,space,415.6388700050302,None,1.1715,416.0202006890904,None,0.24409385200124234,,,,,,,DEC013,001,2022_Aug_23_1327,2-25_cond_decay_EYE-try,2021.2.3,120.1773708384012,
,,,,0,0,0,0,2,0,2,0,,,,,,,,,,,,,,,,,,,,,,,,,,,,,,,,,,,,,,,,,,,,,DEC013,001,2022_Aug_23_1327,2-25_cond_decay_EYE-try,2021.2.3,120.1773708384012,
left,0.75,1.0,0,0,0,0,0,3,0,3,0,0,0,0,3,,,,,,,,,416.91248813504353,None,416.91248813504353,None,416.91248813504353,None,10s,421.56179390707985,422.5633003580151,422.54666169406846,None,423.5467763240449,430.0466468189843,423.5467763240449,430.0466468189843,430.0466468189843,None,430.0466468189843,None,space,430.0466468189843,None,6.5011,430.54562167508993,None,0.3641856040339917,,,,,,,DEC013,001,2022_Aug_23_1327,2-25_cond_decay_EYE-try,2021.2.3,120.1773708384012,
right,1.0,0.75,0,0,0,0,0,3,0,3,0,0,1,1,8,,,,,,,,,,,,,,,10s,431.60374455899,432.60518683306873,432.59713783103507,None,433.59724590706173,439.7555863830494,433.59724590706173,439.7555863830494,439.74661685700994,None,439.74661685700994,None,space,439.74661685700994,None,6.1511,440.17015151004307,None,0.2882228420348838,,,,,,,DEC013,001,2022_Aug_23_1327,2-25_cond_decay_EYE-try,2021.2.3,120.1773708384012,
left,1.0,0.75,1,0,0,0,0,3,0,3,0,0,2,2,7,,,,,,,,,,,,,,,10s,441.22944587201346,442.2304017720744,442.2223274380667,None,443.22210674302187,448.69752491102554,443.22210674302187,448.69752491102554,448.6886643510079,None,448.6886643510079,None,space,448.6886643510079,None,5.47,449.1622128430754,None,0.3381808630656451,,,,,,,DEC013,001,2022_Aug_23_1327,2-25_cond_decay_EYE-try,2021.2.3,120.1773708384012,
right,1.0,0.75,0,0,0,0,0,3,0,3,0,0,3,3,6,,,,,,,,,,,,,,,10s,450.220471541048,451.2221598040778,451.2053138650954,None,452.20517003908753,453.17187472607475,452.20517003908753,453.17187472607475,453.17187472607475,None,453.17187472607475,None,space,453.17187472607475,None,0.9625,453.7038017780287,None,0.39904272905550897,,,,,,,DEC013,001,2022_Aug_23_1327,2-25_cond_decay_EYE-try,2021.2.3,120.1773708384012,
right,0.75,1.0,1,0,0,0,0,3,0,3,0,0,4,4,1,,,,,,,,,,,,,,,10s,454.75370049499907,455.75534665503073,455.74741734808777,None,456.7471077480586,460.3226696810452,456.7471077480586,460.3226696810452,460.3226696810452,None,460.3226696810452,None,space,460.3226696810452,None,3.5707,460.746093952097,None,0.288184616016224,,,,,,,DEC013,001,2022_Aug_23_1327,2-25_cond_decay_EYE-try,2021.2.3,120.1773708384012,
right,1.0,0.75,0,0,0,0,0,3,0,3,0,0,5,5,2,,,,,,,,,,,,,,,10s,461.79632256005425,462.79734498704784,462.7884928130079,None,463.78909916908015,465.03916511300486,463.78909916908015,465.03916511300486,465.03916511300486,None,465.03916511300486,None,space,465.03916511300486,None,1.2443,465.53783008409664,None,0.36368573701474816,,,,,,,DEC013,001,2022_Aug_23_1327,2-25_cond_decay_EYE-try,2021.2.3,120.1773708384012,
left,0.75,1.0,0,0,0,0,0,3,0,3,0,0,6,6,0,,,,,,,,,,,,,,,10s,466.59578173898626,467.5972443020437,467.5892752869986,None,468.5889593390748,478.0140364510007,468.5889593390748,478.0140364510007,478.0140364510007,None,478.0140364510007,None,space,478.0140364510007,None,9.4259,478.43913079902995,None,0.2928036260418594,,,,,,,DEC013,001,2022_Aug_23_1327,2-25_cond_decay_EYE-try,2021.2.3,120.1773708384012,
left,0.75,1.0,0,0,0,0,0,3,0,3,0,0,7,7,9,,,,,,,,,,,,,,,10s,479.4957144240616,480.4978403589921,480.4887810529908,None,481.48875333101023,490.20583170303144,481.48875333101023,490.20583170303144,490.20583170303144,None,490.20583170303144,None,space,490.20583170303144,None,8.717,490.68771042709704,None,0.34909535897895694,,,,,,,DEC013,001,2022_Aug_23_1327,2-25_cond_decay_EYE-try,2021.2.3,120.1773708384012,
left,0.75,1.0,0,0,0,0,0,3,0,3,0,0,8,8,4,,,,,,,,,,,,,,,10s,491.73956836306024,492.7389310860308,492.7309743150836,None,493.7305376530858,494.5227331620408,493.7305376530858,494.5227331620408,494.5227331620408,None,494.5227331620408,None,space,494.5227331620408,None,0.7884,495.12940899608657,None,0.47212777007371187,,,,,,,DEC013,001,2022_Aug_23_1327,2-25_cond_decay_EYE-try,2021.2.3,120.1773708384012,
left,0.75,1.0,0,0,0,0,0,3,0,3,0,0,9,9,5,,,,,,,,,,,,,,,10s,496.1804126170464,497.1808138700435,497.1729925600812,None,498.1725541059859,503.81441077799536,498.1725541059859,503.81441077799536,503.81441077799536,None,503.81441077799536,None,space,503.81441077799536,None,5.6419,504.30425331299193,None,0.3564416120061651,,,,,,,DEC013,001,2022_Aug_23_1327,2-25_cond_decay_EYE-try,2021.2.3,120.1773708384012,
left,0.75,1.0,0,0,0,0,0,3,0,3,0,1,0,10,0,,,,,,,,,,,,,,,10s,505.35419603902847,506.35574084799737,506.35574084799737,None,507.35577964701224,512.7639613270294,507.35577964701224,512.7639613270294,512.7560144989984,None,512.7560144989984,None,space,512.7560144989984,None,5.408,513.1795700390358,None,0.28682206093799323,,,,,,,DEC013,001,2022_Aug_23_1327,2-25_cond_decay_EYE-try,2021.2.3,120.1773708384012,
right,1.0,0.75,0,0,0,0,0,3,0,3,0,1,1,11,8,,,,,,,,,,,,,,,10s,514.2386524380418,515.2396353640361,515.2314540980151,None,516.2313168779947,524.7478053930681,516.2313168779947,524.7478053930681,524.7478053930681,None,524.7478053930681,None,space,524.7478053930681,None,8.5152,525.2129735290073,None,0.32704474800266325,,,,,,,DEC013,001,2022_Aug_23_1327,2-25_cond_decay_EYE-try,2021.2.3,120.1773708384012,
left,0.75,1.0,0,0,0,0,0,3,0,3,0,1,2,12,4,,,,,,,,,,,,,,,10s,526.2711804490536,527.2724664730486,527.2645348260412,None,528.2641542700585,530.8311905560549,528.2641542700585,530.8311905560549,530.8311905560549,None,530.8311905560549,None,space,530.8311905560549,None,2.5673,531.3386710820487,None,0.3716580409090966,,,,,,,DEC013,001,2022_Aug_23_1327,2-25_cond_decay_EYE-try,2021.2.3,120.1773708384012,
left,0.75,1.0,0,0,0,0,0,3,0,3,0,1,3,13,9,,,,,,,,,,,,,,,10s,532.3884361269884,533.389549505082,533.3815960839856,None,534.381481536082,540.581379473093,534.381481536082,540.581379473093,540.5732912260573,None,540.5732912260573,None,space,540.5732912260573,None,6.1985,541.0066635190742,None,0.3015518320025876,,,,,,,DEC013,001,2022_Aug_23_1327,2-25_cond_decay_EYE-try,2021.2.3,120.1773708384012,
right,1.0,0.75,0,0,0,0,0,3,0,3,0,1,4,14,6,,,,,,,,,,,,,,,10s,542.0713323249947,543.0728530990891,543.0563874919899,None,544.0562387329992,549.6152195810573,544.0562387329992,549.6152195810573,549.6152195810573,None,549.6152195810573,None,space,549.6152195810573,None,5.5541,550.0797753910301,None,0.3316392810083926,,,,,,,DEC013,001,2022_Aug_23_1327,2-25_cond_decay_EYE-try,2021.2.3,120.1773708384012,
left,0.75,1.0,0,0,0,0,0,3,0,3,0,1,5,15,5,,,,,,,,,,,,,,,10s,551.1385067839874,552.1401546070119,552.1232556820614,None,553.1234915950336,553.3898170010652,553.1234915950336,553.3898170010652,553.3898170010652,None,553.3898170010652,None,None,553.3898170010652,None,0.2634,554.5137227270752,None,,,,,,,,DEC013,001,2022_Aug_23_1327,2-25_cond_decay_EYE-try,2021.2.3,120.1773708384012,
right,1.0,0.75,0,0,0,0,0,3,0,3,0,1,6,16,3,,,,,,,,,,,,,,,10s,555.564168326091,556.5644873410929,556.5566945089959,None,557.5567552840803,565.3647458530031,557.5567552840803,565.3647458530031,565.3647458530031,None,565.3647458530031,None,space,565.3647458530031,None,7.8024,565.8215507430723,None,0.318113990011625,,,,,,,DEC013,001,2022_Aug_23_1327,2-25_cond_decay_EYE-try,2021.2.3,120.1773708384012,
right,0.75,1.0,1,0,0,0,0,3,0,3,0,1,7,17,1,,,,,,,,,,,,,,,10s,566.8726284890436,567.8736299020238,567.864531151019,None,568.8653872020077,572.772930980078,568.8653872020077,572.772930980078,572.772930980078,None,572.772930980078,None,space,572.772930980078,None,3.9027,573.2717739820946,None,0.3660231860121712,,,,,,,DEC013,001,2022_Aug_23_1327,2-25_cond_decay_EYE-try,2021.2.3,120.1773708384012,
left,1.0,0.75,1,0,0,0,0,3,0,3,0,1,8,18,7,,,,,,,,,,,,,,,10s,574.3307928130962,575.3320517829852,575.3230054080486,None,576.3237059570383,577.6737042070599,576.3237059570383,577.6737042070599,577.6647540309932,None,577.6647540309932,None,space,577.6647540309932,None,1.3454,578.1819371900056,None,0.38610793405678123,,,,,,,DEC013,001,2022_Aug_23_1327,2-25_cond_decay_EYE-try,2021.2.3,120.1773708384012,
right,1.0,0.75,0,0,0,0,0,3,0,3,0,1,9,19,2,,,,,,,,,,,,,,,10s,579.2390837180428,580.2400637610117,580.2317472920986,None,581.2315782430815,591.039732361096,581.2315782430815,591.039732361096,591.039732361096,None,591.039732361096,None,space,591.039732361096,None,9.8056,591.771925799083,None,0.5951256969710812,,,,,,,DEC013,001,2022_Aug_23_1327,2-25_cond_decay_EYE-try,2021.2.3,120.1773708384012,
,,,,0,0,0,0,3,0,3,0,,,,,,,,,,,,,,,,,,,,,,,,,,,,,,,,,,,,,,,,,,,,,DEC013,001,2022_Aug_23_1327,2-25_cond_decay_EYE-try,2021.2.3,120.1773708384012,
,,,,0,0,0,0,,,,,,,,,,,,,,,,,,,,,,,,,,,,,,,,,,,,,,,,,,,592.6640291580698,None,592.6640291580698,None,592.6640291580698,None,DEC013,001,2022_Aug_23_1327,2-25_cond_decay_EYE-try,2021.2.3,120.1773708384012,
left,1.0,0.75,1,1,0,1,0,0,0,0,0,0,0,0,8,,,,,,,,,597.6641701210756,None,597.6641701210756,None,597.6641701210756,None,5s,604.1645718680229,605.1655610150192,605.1487401600461,None,606.1483238360379,606.5154204490827,606.1483238360379,606.5154204490827,606.5154204490827,None,606.5154204490827,None,space,606.5154204490827,None,0.3685,607.1311819750117,None,0.4794315620092675,,,,,,,DEC013,001,2022_Aug_23_1327,2-25_cond_decay_EYE-try,2021.2.3,120.1773708384012,
left,0.75,1.0,0,1,0,1,0,0,0,0,0,0,1,1,1,,,,,,,,,,,,,,,5s,608.1820536319865,609.1815606760792,609.1736913460772,None,610.1733718310716,611.1320549260126,610.1733718310716,611.1320549260126,611.1320549260126,None,611.1320549260126,None,space,611.1320549260126,None,0.9564,611.5986200730549,None,0.33480030100326985,,,,,,,DEC013,001,2022_Aug_23_1327,2-25_cond_decay_EYE-try,2021.2.3,120.1773708384012,
right,1.0,0.75,0,1,0,1,0,0,0,0,0,0,2,2,9,,,,,,,,,,,,,,,5s,612.6646162960678,613.665185455,613.6488075280795,None,614.6492420010036,618.4492530600401,614.6492420010036,618.4492530600401,618.4492530600401,None,618.4492530600401,None,space,618.4492530600401,None,3.7965,618.8894417270785,None,0.3056760609615594,,,,,,,DEC013,001,2022_Aug_23_1327,2-25_cond_decay_EYE-try,2021.2.3,120.1773708384012,
right,1.0,0.75,0,1,0,1,0,0,0,0,0,0,3,3,3,,,,,,,,,,,,,,,5s,619.9326206760015,620.9323484040797,620.9242505370639,None,621.9242292720592,622.4323383300798,621.9242292720592,622.4323383300798,622.4323383300798,None,622.4323383300798,None,space,622.4323383300798,None,0.5036,622.9306215780089,None,0.3625182389514521,,,,,,,DEC013,001,2022_Aug_23_1327,2-25_cond_decay_EYE-try,2021.2.3,120.1773708384012,
left,0.75,1.0,0,1,0,1,0,0,0,0,0,0,4,4,2,,,,,,,,,,,,,,,5s,623.9892314220779,624.9902817290276,624.9822453830857,None,625.9818833500613,630.3992092730477,625.9818833500613,630.3992092730477,630.3992092730477,None,630.3992092730477,None,space,630.3992092730477,None,4.4174,630.8314783400856,None,0.29964526800904423,,,,,,,DEC013,001,2022_Aug_23_1327,2-25_cond_decay_EYE-try,2021.2.3,120.1773708384012,
right,1.0,0.75,0,1,0,1,0,0,0,0,0,0,5,5,6,,,,,,,,,,,,,,,5s,631.8894322779961,632.8902229630621,632.8739106660942,None,633.874014555011,636.5739789300133,633.874014555011,636.5739789300133,636.5660300510935,None,636.5660300510935,None,space,636.5660300510935,None,2.6941,637.0228918700013,None,0.3248285190202296,,,,,,,DEC013,001,2022_Aug_23_1327,2-25_cond_decay_EYE-try,2021.2.3,120.1773708384012,
left,0.75,1.0,0,1,0,1,0,0,0,0,0,0,6,6,5,,,,,,,,,,,,,,,5s,638.0813554379856,639.0821723970585,639.0661994850961,None,640.0661760020303,644.4237717860378,640.0661760020303,644.4237717860378,644.4237717860378,None,644.4237717860378,None,space,644.4237717860378,None,4.3551,644.8310855170712,None,0.2751869619823992,,,,,,,DEC013,001,2022_Aug_23_1327,2-25_cond_decay_EYE-try,2021.2.3,120.1773708384012,
right,0.75,1.0,1,1,0,1,0,0,0,0,0,0,7,7,0,,,,,,,,,,,,,,,5s,645.8827911060071,646.8820655830204,646.8741344460286,None,647.8739339699969,651.5575728720287,647.8739339699969,651.5575728720287,651.5575728720287,None,651.5575728720287,None,space,651.5575728720287,None,3.6807,651.973849239992,None,0.285286781960167,,,,,,,DEC013,001,2022_Aug_23_1327,2-25_cond_decay_EYE-try,2021.2.3,120.1773708384012,
right,1.0,0.75,0,1,0,1,0,0,0,0,0,0,8,8,4,,,,,,,,,,,,,,,5s,653.0314167070901,654.0326773240231,654.0238077400718,None,655.0238361640368,655.9655666879844,655.0238361640368,655.9655666879844,655.9655666879844,None,655.9655666879844,None,space,655.9655666879844,None,0.9425,656.4315115550999,None,0.3333534599514678,,,,,,,DEC013,001,2022_Aug_23_1327,2-25_cond_decay_EYE-try,2021.2.3,120.1773708384012,
left,1.0,0.75,1,1,0,1,0,0,0,0,0,0,9,9,7,,,,,,,,,,,,,,,5s,657.481370605994,658.4826421160251,658.4746332770446,None,659.4747639020206,661.5074644630076,659.4747639020206,661.5074644630076,661.5074644630076,None,661.5074644630076,None,space,661.5074644630076,None,2.0291,661.9066068580141,None,0.2634036090457812,,,,,,,DEC013,001,2022_Aug_23_1327,2-25_cond_decay_EYE-try,2021.2.3,120.1773708384012,
left,1.0,0.75,1,1,0,1,0,0,0,0,0,1,0,10,7,,,,,,,,,,,,,,,5s,662.964916151017,663.9656011660118,663.9495110320859,None,664.9496649920475,668.7324028330622,664.9496649920475,668.7324028330622,668.7324028330622,None,668.7324028330622,None,space,668.7324028330622,None,3.7793,669.1480872849934,None,0.278460900997743,,,,,,,DEC013,001,2022_Aug_23_1327,2-25_cond_decay_EYE-try,2021.2.3,120.1773708384012,
right,1.0,0.75,0,1,0,1,0,0,0,0,0,1,1,11,6,,,,,,,,,,,,,,,5s,670.2067339220084,671.2077243620297,671.1995075070299,None,672.1993875990156,674.5572331190342,672.1993875990156,674.5572331190342,674.5491385440109,None,674.5491385440109,None,space,674.5491385440109,None,2.3568,675.0065592750907,None,0.3177334200590849,,,,,,,DEC013,001,2022_Aug_23_1327,2-25_cond_decay_EYE-try,2021.2.3,120.1773708384012,
left,0.75,1.0,0,1,0,1,0,0,0,0,0,1,2,12,8,,,,,,,,,,,,,,,5s,676.064472623053,677.0656392910751,677.0575237120502,None,678.0575077399844,678.5415500010131,678.0575077399844,678.5415500010131,678.5415500010131,None,678.5415500010131,None,space,678.5415500010131,None,0.481,679.031497218064,None,0.357369436067529,,,,,,,DEC013,001,2022_Aug_23_1327,2-25_cond_decay_EYE-try,2021.2.3,120.1773708384012,
right,1.0,0.75,0,1,0,1,0,0,0,0,0,1,3,13,9,,,,,,,,,,,,,,,5s,680.0896007760894,681.0915592560777,681.0827707540011,None,682.0827894100221,685.4580466980115,682.0827894100221,685.4580466980115,685.4580466980115,None,685.4580466980115,None,space,685.4580466980115,None,3.3713,685.8731822480913,None,0.28081662696786225,,,,,,,DEC013,001,2022_Aug_23_1327,2-25_cond_decay_EYE-try,2021.2.3,120.1773708384012,
right,0.75,1.0,1,1,0,1,0,0,0,0,0,1,4,14,0,,,,,,,,,,,,,,,5s,686.9235945960972,687.9245136020472,687.916558781988,None,688.9163439280819,693.5664469780168,688.9163439280819,693.5664469780168,693.5576772590866,None,693.5576772590866,None,space,693.5576772590866,None,4.645,693.948072598083,None,0.25319157796911895,,,,,,,DEC013,001,2022_Aug_23_1327,2-25_cond_decay_EYE-try,2021.2.3,120.1773708384012,
left,0.75,1.0,0,1,0,1,0,0,0,0,0,1,5,15,1,,,,,,,,,,,,,,,5s,695.006251371,696.0074322239961,695.9916560340207,None,696.9913053460186,699.9497148100054,696.9913053460186,699.9497148100054,699.9497148100054,None,699.9497148100054,None,space,699.9497148100054,None,2.9523,700.3896504699951,None,0.3011605569627136,,,,,,,DEC013,001,2022_Aug_23_1327,2-25_cond_decay_EYE-try,2021.2.3,120.1773708384012,
left,0.75,1.0,0,1,0,1,0,0,0,0,0,1,6,16,5,,,,,,,,,,,,,,,5s,701.4401732929982,702.4413204870652,702.433147385018,None,703.4332399970153,704.3167813580949,703.4332399970153,704.3167813580949,704.3081973170629,None,704.3081973170629,None,space,704.3081973170629,None,0.8777,704.7498416380258,None,0.310679716989398,,,,,,,DEC013,001,2022_Aug_23_1327,2-25_cond_decay_EYE-try,2021.2.3,120.1773708384012,
left,0.75,1.0,0,1,0,1,0,0,0,0,0,1,7,17,2,,,,,,,,,,,,,,,5s,705.8152394980425,706.8162627200363,706.799324288033,None,707.7999081620947,708.8999871810665,707.7999081620947,708.8999871810665,708.8999871810665,None,708.8999871810665,None,space,708.8999871810665,None,1.098,709.2822354310192,None,0.24688749201595783,,,,,,,DEC013,001,2022_Aug_23_1327,2-25_cond_decay_EYE-try,2021.2.3,120.1773708384012,
right,1.0,0.75,0,1,0,1,0,0,0,0,0,1,8,18,3,,,,,,,,,,,,,,,5s,710.3323142720619,711.3332191290101,711.3252553020138,None,712.3247328400612,713.6164731950266,712.3247328400612,713.6164731950266,713.6164731950266,None,713.6164731950266,None,space,713.6164731950266,None,1.2878,714.0480383640388,None,0.2984705490525812,,,,,,,DEC013,001,2022_Aug_23_1327,2-25_cond_decay_EYE-try,2021.2.3,120.1773708384012,
right,1.0,0.75,0,1,0,1,0,0,0,0,0,1,9,19,4,,,,,,,,,,,,,,,5s,715.0981703650905,716.1002615010366,716.0911291800439,None,717.0918351920554,719.599589758087,717.0918351920554,719.599589758087,719.591483945027,None,719.591483945027,None,space,719.591483945027,None,2.5022,719.9907153580571,None,0.2673938390798867,,,,,,,DEC013,001,2022_Aug_23_1327,2-25_cond_decay_EYE-try,2021.2.3,120.1773708384012,
,,,,1,0,1,0,0,0,0,0,,,,,,,,,,,,,,,,,,,,,,,,,,,,,,,,,,,,,,,,,,,,,DEC013,001,2022_Aug_23_1327,2-25_cond_decay_EYE-try,2021.2.3,120.1773708384012,
right,1.0,0.75,0,1,0,1,0,1,0,1,0,0,0,0,6,,,,,,,,,720.8901953439927,None,720.8901953439927,None,720.8901953439927,None,1s,730.2906061480753,731.2920529090334,731.2829096380156,None,732.2837649770081,732.782953274087,732.2837649770081,732.782953274087,732.782953274087,None,732.782953274087,None,space,732.782953274087,None,0.4979,733.1658689120086,None,0.24391285807359964,,,,,,,DEC013,001,2022_Aug_23_1327,2-25_cond_decay_EYE-try,2021.2.3,120.1773708384012,
right,1.0,0.75,0,1,0,1,0,1,0,1,0,0,1,1,5,,,,,,,,,,,,,,,1s,734.2151138260961,735.2170159739908,735.2080778060481,None,736.2079425960546,736.8913701750571,736.2079425960546,736.8913701750571,736.8913701750571,None,736.8913701750571,None,space,736.8913701750571,None,0.6827,737.2571015660651,None,0.23158764105755836,,,,,,,DEC013,001,2022_Aug_23_1327,2-25_cond_decay_EYE-try,2021.2.3,120.1773708384012,
left,1.0,0.75,1,1,0,1,0,1,0,1,0,0,2,2,7,,,,,,,,,,,,,,,1s,738.3152984300395,739.3169784190832,739.3086278780829,None,740.308443928021,740.9751247180393,740.308443928021,740.9751247180393,740.9670022020582,None,740.9670022020582,None,space,740.9670022020582,None,0.6612,741.365917454008,None,0.25986957806162536,,,,,,,DEC013,001,2022_Aug_23_1327,2-25_cond_decay_EYE-try,2021.2.3,120.1773708384012,
left,0.75,1.0,0,1,0,1,0,1,0,1,0,0,3,3,0,,,,,,,,,,,,,,,1s,742.4238229320617,743.4248663090402,743.4079324400518,None,744.4084356570384,744.7502057240345,744.4084356570384,744.7502057240345,744.7502057240345,None,744.7502057240345,None,space,744.7502057240345,None,0.3365,745.2241675490513,None,0.34076771803665906,,,,,,,DEC013,001,2022_Aug_23_1327,2-25_cond_decay_EYE-try,2021.2.3,120.1773708384012,
right,1.0,0.75,0,1,0,1,0,1,0,1,0,0,4,4,8,,,,,,,,,,,,,,,1s,746.2738234600984,747.275541500072,747.2664408090059,None,748.2664611419896,749.2085339000914,748.2664611419896,749.2085339000914,749.2085339000914,None,749.2085339000914,None,space,749.2085339000914,None,0.9413,749.5833739429945,None,0.24241570592857897,,,,,,,DEC013,001,2022_Aug_23_1327,2-25_cond_decay_EYE-try,2021.2.3,120.1773708384012,
left,0.75,1.0,0,1,0,1,0,1,0,1,0,0,5,5,2,,,,,,,,,,,,,,,1s,750.6487954549957,751.6501888530329,751.633579520043,None,752.6330918160966,753.5584743390791,752.6330918160966,753.5584743390791,753.5584743390791,None,753.5584743390791,None,space,753.5584743390791,None,0.9235,753.9158844220219,None,0.2204052839661017,,,,,,,DEC013,001,2022_Aug_23_1327,2-25_cond_decay_EYE-try,2021.2.3,120.1773708384012,
left,0.75,1.0,0,1,0,1,0,1,0,1,0,0,6,6,3,,,,,,,,,,,,,,,1s,754.9651648750296,755.96660543303,755.9585923700361,None,756.9584991610609,757.2915651890216,756.9584991610609,757.2915651890216,757.283492317074,None,757.283492317074,None,space,757.283492317074,None,0.3276,757.681940196082,None,0.26338784606195986,,,,,,,DEC013,001,2022_Aug_23_1327,2-25_cond_decay_EYE-try,2021.2.3,120.1773708384012,
right,0.75,1.0,1,1,0,1,0,1,0,1,0,0,7,7,9,,,,,,,,,,,,,,,1s,758.7318964740261,759.7336550350301,759.7336550350301,None,760.7338913080748,760.9336067719851,760.7338913080748,760.9336067719851,760.9248113370268,None,760.9248113370268,None,space,760.9248113370268,None,0.1934,761.3915643520886,None,0.33413217100314796,,,,,,,DEC013,001,2022_Aug_23_1327,2-25_cond_decay_EYE-try,2021.2.3,120.1773708384012,
right,1.0,0.75,0,1,0,1,0,1,0,1,0,0,8,8,4,,,,,,,,,,,,,,,1s,762.448606683989,763.4508000840433,763.4415370629868,None,764.4423432530602,765.3504940220155,764.4423432530602,765.3504940220155,765.3416421650909,None,765.3416421650909,None,space,765.3416421650909,None,0.9041,765.7156999700237,None,0.23722820600960404,,,,,,,DEC013,001,2022_Aug_23_1327,2-25_cond_decay_EYE-try,2021.2.3,120.1773708384012,
right,1.0,0.75,0,1,0,1,0,1,0,1,0,0,9,9,1,,,,,,,,,,,,,,,1s,766.7657245940063,767.7672862040345,767.7582395310747,None,768.75846696808,769.4498861600878,768.75846696808,769.4498861600878,769.4417485650629,None,769.4417485650629,None,space,769.4417485650629,None,0.6855,769.8496156980982,None,0.27322315506171435,,,,,,,DEC013,001,2022_Aug_23_1327,2-25_cond_decay_EYE-try,2021.2.3,120.1773708384012,
left,0.75,1.0,0,1,0,1,0,1,0,1,0,1,0,10,6,,,,,,,,,,,,,,,1s,770.9074247439858,771.9084990990814,771.9002188510494,None,772.9009244320914,773.1504329839954,772.9009244320914,773.1504329839954,773.1418499430874,None,773.1418499430874,None,space,773.1418499430874,None,0.2468,773.5592766570626,None,0.2850345299812034,,,,,,,DEC013,001,2022_Aug_23_1327,2-25_cond_decay_EYE-try,2021.2.3,120.1773708384012,
left,0.75,1.0,0,1,0,1,0,1,0,1,0,1,1,11,3,,,,,,,,,,,,,,,1s,774.6154349400895,775.6174184090924,775.6004960340215,None,776.6084495130926,776.8341452920577,776.6084495130926,776.8341452920577,776.8341452920577,None,776.8341452920577,None,space,776.8341452920577,None,0.2253,777.2237416970311,None,0.25679566501639783,,,,,,,DEC013,001,2022_Aug_23_1327,2-25_cond_decay_EYE-try,2021.2.3,120.1773708384012,
right,1.0,0.75,0,1,0,1,0,1,0,1,0,1,2,12,4,,,,,,,,,,,,,,,1s,778.2743008580292,779.275362023036,779.2673445910914,None,780.2670662860619,780.7673333050916,780.2670662860619,780.7673333050916,780.7673333050916,None,780.7673333050916,None,space,780.7673333050916,None,0.5014,781.0824524320196,None,0.1795448639895767,,,,,,,DEC013,001,2022_Aug_23_1327,2-25_cond_decay_EYE-try,2021.2.3,120.1773708384012,
right,0.75,1.0,1,1,0,1,0,1,0,1,0,1,3,13,9,,,,,,,,,,,,,,,1s,782.1328492000466,783.1341719330521,783.1250683750259,None,784.1258782350924,784.875636316021,784.1258782350924,784.875636316021,784.8676018270198,None,784.8676018270198,None,space,784.8676018270198,None,0.7466,785.2574668780435,None,0.25526994303800166,,,,,,,DEC013,001,2022_Aug_23_1327,2-25_cond_decay_EYE-try,2021.2.3,120.1773708384012,
right,1.0,0.75,0,1,0,1,0,1,0,1,0,1,4,14,8,,,,,,,,,,,,,,,1s,786.3075683040079,787.3089142210083,787.3009285420412,None,788.3010869110003,788.6918065730715,788.3010869110003,788.6918065730715,788.6838395080995,None,788.6838395080995,None,space,788.6838395080995,None,0.3863,789.0907842300367,None,0.2710534870857373,,,,,,,DEC013,001,2022_Aug_23_1327,2-25_cond_decay_EYE-try,2021.2.3,120.1773708384012,
left,0.75,1.0,0,1,0,1,0,1,0,1,0,1,5,15,0,,,,,,,,,,,,,,,1s,790.1490497940686,791.1509122300195,791.1336704710266,None,792.1343740590382,792.9756480520591,792.1343740590382,792.9756480520591,792.9678073390387,None,792.9678073390387,None,space,792.9678073390387,None,0.8348,793.5072514649946,None,0.40307947900146246,,,,,,,DEC013,001,2022_Aug_23_1327,2-25_cond_decay_EYE-try,2021.2.3,120.1773708384012,
right,1.0,0.75,0,1,0,1,0,1,0,1,0,1,6,16,5,,,,,,,,,,,,,,,1s,794.5661839270033,795.5672311059898,795.5592388589866,None,796.5589346000925,796.926159889088,796.5589346000925,796.926159889088,796.926159889088,None,796.926159889088,None,space,796.926159889088,None,0.3637,797.407720652991,None,0.3487209079321474,,,,,,,DEC013,001,2022_Aug_23_1327,2-25_cond_decay_EYE-try,2021.2.3,120.1773708384012,
left,1.0,0.75,1,1,0,1,0,1,0,1,0,1,7,17,7,,,,,,,,,,,,,,,1s,798.4657008519862,799.4671400970547,799.4590524100931,None,800.459032156039,801.1340391760459,800.459032156039,801.1340391760459,801.1261894990457,None,801.1261894990457,None,space,801.1261894990457,None,0.672,801.5670996600529,None,0.30869766999967396,,,,,,,DEC013,001,2022_Aug_23_1327,2-25_cond_decay_EYE-try,2021.2.3,120.1773708384012,
right,1.0,0.75,0,1,0,1,0,1,0,1,0,1,8,18,1,,,,,,,,,,,,,,,1s,802.6249744410161,803.6251671940554,803.6172253789846,None,804.617206332041,805.2005222539883,804.617206332041,805.2005222539883,805.1923908810131,None,805.1923908810131,None,space,805.1923908810131,None,0.5765,805.6161432400113,None,0.2905681610573083,,,,,,,DEC013,001,2022_Aug_23_1327,2-25_cond_decay_EYE-try,2021.2.3,120.1773708384012,
left,0.75,1.0,0,1,0,1,0,1,0,1,0,1,9,19,2,,,,,,,,,,,,,,,1s,806.6746037360281,807.6759292770876,807.667033373029,None,808.6678072290961,808.8345970440423,808.6678072290961,808.8345970440423,808.8345970440423,None,808.8345970440423,None,space,808.8345970440423,None,0.1617,809.2656660450157,None,0.29638081893790513,,,,,,,DEC013,001,2022_Aug_23_1327,2-25_cond_decay_EYE-try,2021.2.3,120.1773708384012,
,,,,1,0,1,0,1,0,1,0,,,,,,,,,,,,,,,,,,,,,,,,,,,,,,,,,,,,,,,,,,,,,DEC013,001,2022_Aug_23_1327,2-25_cond_decay_EYE-try,2021.2.3,120.1773708384012,
right,1.0,0.75,0,1,0,1,0,2,0,2,0,0,0,0,7,,,,,,,,,810.1575380649883,None,810.1575380649883,None,810.1575380649883,None,10s,816.4908502200851,817.4930305390153,817.483897853992,None,818.4844758900581,822.5005697880406,818.4844758900581,822.5005697880406,822.4925783470972,None,822.4925783470972,None,space,822.4925783470972,None,4.012,822.9500951830996,None,0.31837838306091726,,,,,,,DEC013,001,2022_Aug_23_1327,2-25_cond_decay_EYE-try,2021.2.3,120.1773708384012,
left,0.75,1.0,0,1,0,1,0,2,0,2,0,0,1,1,2,,,,,,,,,,,,,,,10s,823.999387151096,825.001310762018,824.9930098300101,None,825.9932185540674,831.3091518960427,825.9932185540674,831.3091518960427,831.3091518960427,None,831.3091518960427,None,space,831.3091518960427,None,5.3148,831.708676001057,None,0.2617295450763777,,,,,,,DEC013,001,2022_Aug_23_1327,2-25_cond_decay_EYE-try,2021.2.3,120.1773708384012,
right,0.75,1.0,1,1,0,1,0,2,0,2,0,0,2,2,0,,,,,,,,,,,,,,,10s,832.7667304520728,833.7676572650671,833.7594919960247,None,834.7596154120984,844.7090981199872,834.7596154120984,844.7090981199872,844.7090981199872,None,844.7090981199872,None,space,844.7090981199872,None,9.9496,845.216478610062,None,0.3737972070230171,,,,,,,DEC013,001,2022_Aug_23_1327,2-25_cond_decay_EYE-try,2021.2.3,120.1773708384012,
left,0.75,1.0,0,1,0,1,0,2,0,2,0,0,3,3,5,,,,,,,,,,,,,,,10s,846.2748809540644,847.2765309259994,847.2676189040067,None,848.2677303430391,856.0851190180983,848.2677303430391,856.0851190180983,856.0759944190504,None,856.0759944190504,None,space,856.0759944190504,None,7.8125,856.5001230520429,None,0.2869001269573346,,,,,,,DEC013,001,2022_Aug_23_1327,2-25_cond_decay_EYE-try,2021.2.3,120.1773708384012,
left,0.75,1.0,0,1,0,1,0,2,0,2,0,0,4,4,6,,,,,,,,,,,,,,,10s,857.5500557840569,858.5514845300931,858.5424357700394,None,859.5429036540445,868.1846772390418,859.5429036540445,868.1846772390418,868.1846772390418,None,868.1846772390418,None,space,868.1846772390418,None,8.6381,868.6167283940595,None,0.2982731219381094,,,,,,,DEC013,001,2022_Aug_23_1327,2-25_cond_decay_EYE-try,2021.2.3,120.1773708384012,
right,1.0,0.75,0,1,0,1,0,2,0,2,0,0,5,5,8,,,,,,,,,,,,,,,10s,869.6750385290943,870.6764723620145,870.6599912490929,None,871.6593121379847,872.9182180130156,871.6593121379847,872.9182180130156,872.9182180130156,None,872.9182180130156,None,space,872.9182180130156,None,1.2576,873.499978568987,None,0.44466923200525343,,,,,,,DEC013,001,2022_Aug_23_1327,2-25_cond_decay_EYE-try,2021.2.3,120.1773708384012,
left,1.0,0.75,1,1,0,1,0,2,0,2,0,0,6,6,4,,,,,,,,,,,,,,,10s,874.5580912070582,875.5593967949972,875.5427151710028,None,876.5431729390984,878.251045710058,876.5431729390984,878.251045710058,878.251045710058,None,878.251045710058,None,space,878.251045710058,None,1.7093,878.6923513500951,None,0.3038400049554184,,,,,,,DEC013,001,2022_Aug_23_1327,2-25_cond_decay_EYE-try,2021.2.3,120.1773708384012,
right,1.0,0.75,0,1,0,1,0,2,0,2,0,0,7,7,3,,,,,,,,,,,,,,,10s,879.7421020420734,880.7431193010416,880.7349122870946,None,881.7349797220668,881.9011502380017,881.7349797220668,881.9011502380017,881.9011502380017,None,881.9011502380017,None,space,881.9011502380017,None,0.1618,882.4332479800796,None,0.3978283579926938,,,,,,,DEC013,001,2022_Aug_23_1327,2-25_cond_decay_EYE-try,2021.2.3,120.1773708384012,
right,1.0,0.75,0,1,0,1,0,2,0,2,0,0,8,8,9,,,,,,,,,,,,,,,10s,883.4833211550722,884.4847032009857,884.4768891209969,None,885.4767670599977,891.0848666050006,885.4767670599977,891.0848666050006,891.0768182210159,None,891.0768182210159,None,space,891.0768182210159,None,5.6006,891.5671307030134,None,0.35809361992869526,,,,,,,DEC013,001,2022_Aug_23_1327,2-25_cond_decay_EYE-try,2021.2.3,120.1773708384012,
right,1.0,0.75,0,1,0,1,0,2,0,2,0,0,9,9,1,,,,,,,,,,,,,,,10s,892.6177026979858,893.6180071980925,893.6100703430129,None,894.6097875720588,900.1100296120858,894.6097875720588,900.1100296120858,900.1013105890015,None,900.1013105890015,None,space,900.1013105890015,None,5.4946,900.5674396120012,None,0.33366038801614195,,,,,,,DEC013,001,2022_Aug_23_1327,2-25_cond_decay_EYE-try,2021.2.3,120.1773708384012,
left,0.75,1.0,0,1,0,1,0,2,0,2,0,1,0,10,5,,,,,,,,,,,,,,,10s,901.6249386270065,902.6267547319876,902.6180188880535,None,903.6185968150385,905.3766782990424,903.6185968150385,905.3766782990424,905.3686359970598,None,905.3686359970598,None,space,905.3686359970598,None,1.7521,905.8921904329909,None,0.38626701198518276,,,,,,,DEC013,001,2022_Aug_23_1327,2-25_cond_decay_EYE-try,2021.2.3,120.1773708384012,
right,1.0,0.75,0,1,0,1,0,2,0,2,0,1,1,11,3,,,,,,,,,,,,,,,10s,906.9506811990868,907.9519000820583,907.9438890250167,None,908.9434447709937,913.9605284250574,908.9434447709937,913.9605284250574,913.9605284250574,None,913.9605284250574,None,space,913.9605284250574,None,5.0135,914.4335155390436,None,0.3383714770898223,,,,,,,DEC013,001,2022_Aug_23_1327,2-25_cond_decay_EYE-try,2021.2.3,120.1773708384012,
left,0.75,1.0,0,1,0,1,0,2,0,2,0,1,2,12,7,,,,,,,,,,,,,,,10s,915.4922833550954,916.493801151053,916.4767504860647,None,917.4765775690321,924.6022051890614,917.4765775690321,924.6022051890614,924.5933699650923,None,924.5933699650923,None,space,924.5933699650923,None,7.1196,925.0340173620498,None,0.3055377888958901,,,,,,,DEC013,001,2022_Aug_23_1327,2-25_cond_decay_EYE-try,2021.2.3,120.1773708384012,
left,0.75,1.0,0,1,0,1,0,2,0,2,0,1,3,13,6,,,,,,,,,,,,,,,10s,926.0835878379876,927.0855323540745,927.0685215900885,None,928.0683790530311,935.9602179439971,928.0683790530311,935.9602179439971,935.9602179439971,None,935.9602179439971,None,space,935.9602179439971,None,7.8853,936.4678577129962,None,0.3706829430302605,,,,,,,DEC013,001,2022_Aug_23_1327,2-25_cond_decay_EYE-try,2021.2.3,120.1773708384012,
right,1.0,0.75,0,1,0,1,0,2,0,2,0,1,4,14,8,,,,,,,,,,,,,,,10s,937.5174931010697,938.5191382180201,938.5100961520802,None,939.510190981091,941.643668372999,939.510190981091,941.643668372999,941.6358077070909,None,941.6358077070909,None,space,941.6358077070909,None,2.1305,942.1596049580257,None,0.383093775017187,,,,,,,DEC013,001,2022_Aug_23_1327,2-25_cond_decay_EYE-try,2021.2.3,120.1773708384012,
right,1.0,0.75,0,1,0,1,0,2,0,2,0,1,5,15,1,,,,,,,,,,,,,,,10s,943.2086926090997,944.2103949220618,944.2025080859894,None,945.2023048109841,953.677256272058,945.2023048109841,953.677256272058,953.677256272058,None,953.677256272058,None,None,953.677256272058,None,8.4758,954.8014161310857,None,,,,,,,,DEC013,001,2022_Aug_23_1327,2-25_cond_decay_EYE-try,2021.2.3,120.1773708384012,
left,1.0,0.75,1,1,0,1,0,2,0,2,0,1,6,16,4,,,,,,,,,,,,,,,10s,955.8527150190203,956.8522903840058,956.8522903840058,None,957.8522080450784,964.8696512620663,957.8522080450784,964.8696512620663,964.8696512620663,None,964.8696512620663,None,space,964.8696512620663,None,7.0176,965.5008669469971,None,0.4933091349666938,,,,,,,DEC013,001,2022_Aug_23_1327,2-25_cond_decay_EYE-try,2021.2.3,120.1773708384012,
right,0.75,1.0,1,1,0,1,0,2,0,2,0,1,7,17,0,,,,,,,,,,,,,,,10s,966.5592206470901,967.5610673590563,967.5520985550247,None,968.5520600620657,972.7273945440538,968.5520600620657,972.7273945440538,972.7273945440538,None,972.7273945440538,None,space,972.7273945440538,None,4.175,973.226034188061,None,0.3635140710975975,,,,,,,DEC013,001,2022_Aug_23_1327,2-25_cond_decay_EYE-try,2021.2.3,120.1773708384012,
left,0.75,1.0,0,1,0,1,0,2,0,2,0,1,8,18,2,,,,,,,,,,,,,,,10s,974.2849003589945,975.2860982450657,975.2690873250831,None,976.2689596490236,985.5776169199962,976.2689596490236,985.5776169199962,985.5776169199962,None,985.5776169199962,None,space,985.5776169199962,None,9.3064,986.0510771280387,None,0.3372896439395845,,,,,,,DEC013,001,2022_Aug_23_1327,2-25_cond_decay_EYE-try,2021.2.3,120.1773708384012,
right,1.0,0.75,0,1,0,1,0,2,0,2,0,1,9,19,9,,,,,,,,,,,,,,,10s,987.1099811330205,988.1110822840128,988.0944139159983,None,989.094440868008,993.5606988250511,989.094440868008,993.5606988250511,993.5606988250511,None,993.5606988250511,None,space,993.5606988250511,None,4.4677,994.0264111950528,None,0.33021779195405543,,,,,,,DEC013,001,2022_Aug_23_1327,2-25_cond_decay_EYE-try,2021.2.3,120.1773708384012,
,,,,1,0,1,0,2,0,2,0,,,,,,,,,,,,,,,,,,,,,,,,,,,,,,,,,,,,,,,,,,,,,DEC013,001,2022_Aug_23_1327,2-25_cond_decay_EYE-try,2021.2.3,120.1773708384012,
left,0.75,1.0,0,1,0,1,0,3,0,3,0,0,0,0,1,,,,,,,,,994.9176501519978,None,994.9176501519978,None,994.9176501519978,None,3s,1000.8018530780682,1001.802788678091,1001.7860472460743,None,1002.7856940199854,1005.7444136270788,1002.7856940199854,1005.7444136270788,1005.7444136270788,None,1005.7444136270788,None,space,1005.7444136270788,None,2.9578,1006.1346897030016,None,0.2584927970310673,,,,,,,DEC013,001,2022_Aug_23_1327,2-25_cond_decay_EYE-try,2021.2.3,120.1773708384012,
right,0.75,1.0,1,1,0,1,0,3,0,3,0,0,1,1,6,,,,,,,,,,,,,,,3s,1007.1936291779857,1008.1943185160635,1008.1860728510655,None,1009.1863196879858,1010.7359544970095,1009.1863196879858,1010.7359544970095,1010.7278430419974,None,1010.7278430419974,None,space,1010.7278430419974,None,1.5436,1011.1938604980242,None,0.33111917809583247,,,,,,,DEC013,001,2022_Aug_23_1327,2-25_cond_decay_EYE-try,2021.2.3,120.1773708384012,
right,1.0,0.75,0,1,0,1,0,3,0,3,0,0,2,2,2,,,,,,,,,,,,,,,3s,1012.2365598609904,1013.2364787880797,1013.2283366480842,None,1014.2280830120435,1016.1781768089859,1014.2280830120435,1016.1781768089859,1016.1781768089859,None,1016.1781768089859,None,space,1016.1781768089859,None,1.9506,1016.5848219509935,None,0.2727928910171613,,,,,,,DEC013,001,2022_Aug_23_1327,2-25_cond_decay_EYE-try,2021.2.3,120.1773708384012,
right,1.0,0.75,0,1,0,1,0,3,0,3,0,0,3,3,4,,,,,,,,,,,,,,,3s,1017.6367430280661,1018.6360703890678,1018.6282895150362,None,1019.6280482520815,1019.9776480620494,1019.6280482520815,1019.9776480620494,1019.9776480620494,None,1019.9776480620494,None,space,1019.9776480620494,None,0.3502,1020.5200238690013,None,0.4092713569989428,,,,,,,DEC013,001,2022_Aug_23_1327,2-25_cond_decay_EYE-try,2021.2.3,120.1773708384012,
left,0.75,1.0,0,1,0,1,0,3,0,3,0,0,4,4,9,,,,,,,,,,,,,,,3s,1021.5850749600213,1022.58652540599,1022.5785634180065,None,1023.5778924560873,1023.8534716080176,1023.5778924560873,1023.8534716080176,1023.8534716080176,None,1023.8534716080176,None,space,1023.8534716080176,None,0.2737,1024.335222380003,None,0.34146494895685464,,,,,,,DEC013,001,2022_Aug_23_1327,2-25_cond_decay_EYE-try,2021.2.3,120.1773708384012,
left,0.75,1.0,0,1,0,1,0,3,0,3,0,0,5,5,8,,,,,,,,,,,,,,,3s,1025.3852869130205,1026.3864763940219,1026.3785015540197,None,1027.378163911053,1029.6611621200573,1027.378163911053,1029.6611621200573,1029.653126575984,None,1029.653126575984,None,space,1029.653126575984,None,2.2764,1030.0864333159989,None,0.3017891950439662,,,,,,,DEC013,001,2022_Aug_23_1327,2-25_cond_decay_EYE-try,2021.2.3,120.1773708384012,
left,0.75,1.0,0,1,0,1,0,3,0,3,0,0,6,6,7,,,,,,,,,,,,,,,3s,1031.1437555140583,1032.1443294599885,1032.136316221091,None,1033.1362692300463,1035.320111899986,1033.1362692300463,1035.320111899986,1035.3111221250147,None,1035.3111221250147,None,space,1035.3111221250147,None,2.1784,1035.695330357994,None,0.251807083026506,,,,,,,DEC013,001,2022_Aug_23_1327,2-25_cond_decay_EYE-try,2021.2.3,120.1773708384012,
left,1.0,0.75,1,1,0,1,0,3,0,3,0,0,7,7,0,,,,,,,,,,,,,,,3s,1036.7521473470842,1037.7531970950076,1037.745125307003,None,1038.7449928540736,1039.3280009400332,1038.7449928540736,1039.3280009400332,1039.3200246350607,None,1039.3200246350607,None,space,1039.3200246350607,None,0.581,1039.793231227086,None,0.33897767402231693,,,,,,,DEC013,001,2022_Aug_23_1327,2-25_cond_decay_EYE-try,2021.2.3,120.1773708384012,
left,0.75,1.0,0,1,0,1,0,3,0,3,0,0,8,8,3,,,,,,,,,,,,,,,3s,1040.8432290540077,1041.8449686310487,1041.8279713500524,None,1042.827972269035,1044.4861515690573,1042.827972269035,1044.4861515690573,1044.4861515690573,None,1044.4861515690573,None,space,1044.4861515690573,None,1.6565,1044.884823755012,None,0.2608357249991968,,,,,,,DEC013,001,2022_Aug_23_1327,2-25_cond_decay_EYE-try,2021.2.3,120.1773708384012,
right,1.0,0.75,0,1,0,1,0,3,0,3,0,0,9,9,5,,,,,,,,,,,,,,,3s,1045.9353962669848,1046.9368831980973,1046.928651313996,None,1047.9278871190036,1048.653252618038,1047.9278871190036,1048.653252618038,1048.653252618038,None,1048.653252618038,None,space,1048.653252618038,None,0.7228,1049.1434657620266,None,0.3577352639986202,,,,,,,DEC013,001,2022_Aug_23_1327,2-25_cond_decay_EYE-try,2021.2.3,120.1773708384012,
right,1.0,0.75,0,1,0,1,0,3,0,3,0,1,0,10,2,,,,,,,,,,,,,,,3s,1050.1940846490907,1051.1952270830516,1051.186560766073,None,1052.187145661097,1052.8370099950116,1052.187145661097,1052.8370099950116,1052.8370099950116,None,1052.8370099950116,None,space,1052.8370099950116,None,0.6467,1053.2273695030017,None,0.25391918199602515,,,,,,,DEC013,001,2022_Aug_23_1327,2-25_cond_decay_EYE-try,2021.2.3,120.1773708384012,
right,0.75,1.0,1,1,0,1,0,3,0,3,0,1,1,11,6,,,,,,,,,,,,,,,3s,1054.277360242093,1055.2782000330044,1055.2704529360635,None,1056.2698886670405,1058.503019410069,1056.2698886670405,1058.503019410069,1058.503019410069,None,1058.503019410069,None,space,1058.503019410069,None,2.2343,1058.8939867489971,None,0.251925318967551,,,,,,,DEC013,001,2022_Aug_23_1327,2-25_cond_decay_EYE-try,2021.2.3,120.1773708384012,
right,1.0,0.75,0,1,0,1,0,3,0,3,0,1,2,12,5,,,,,,,,,,,,,,,3s,1059.9434555590851,1060.944915222004,1060.944915222004,None,1061.9447203420568,1063.4618053770391,1061.9447203420568,1063.4618053770391,1063.4539087770972,None,1063.4539087770972,None,space,1063.4539087770972,None,1.5108,1063.920336109004,None,0.33300122001674026,,,,,,,DEC013,001,2022_Aug_23_1327,2-25_cond_decay_EYE-try,2021.2.3,120.1773708384012,
left,1.0,0.75,1,1,0,1,0,3,0,3,0,1,3,13,0,,,,,,,,,,,,,,,3s,1064.9859473319957,1065.9865366710583,1065.9783946099924,None,1066.9789434220875,1068.4529723849846,1066.9789434220875,1068.4529723849846,1068.445227114018,None,1068.445227114018,None,space,1068.445227114018,None,1.4679,1068.985502410098,None,0.40569108503405005,,,,,,,DEC013,001,2022_Aug_23_1327,2-25_cond_decay_EYE-try,2021.2.3,120.1773708384012,
right,1.0,0.75,0,1,0,1,0,3,0,3,0,1,4,14,1,,,,,,,,,,,,,,,3s,1070.0440068830503,1071.0457026180811,1071.0286374330753,None,1072.0285248960136,1074.6447406560183,1072.0285248960136,1074.6447406560183,1074.6366982670734,None,1074.6366982670734,None,space,1074.6366982670734,None,2.6094,1075.0273607590934,None,0.2542109109926969,,,,,,,DEC013,001,2022_Aug_23_1327,2-25_cond_decay_EYE-try,2021.2.3,120.1773708384012,
right,1.0,0.75,0,1,0,1,0,3,0,3,0,1,5,15,4,,,,,,,,,,,,,,,3s,1076.0770146810682,1077.0790595380822,1077.070672219037,None,1078.0705949100666,1079.4787317420123,1078.0705949100666,1079.4787317420123,1079.4787317420123,None,1079.4787317420123,None,space,1079.4787317420123,None,1.4079,1079.9023133480223,None,0.2921792910201475,,,,,,,DEC013,001,2022_Aug_23_1327,2-25_cond_decay_EYE-try,2021.2.3,120.1773708384012,
left,0.75,1.0,0,1,0,1,0,3,0,3,0,1,6,16,8,,,,,,,,,,,,,,,3s,1080.9686340850312,1081.9698596310336,1081.953835731023,None,1082.9540438940749,1083.986635726993,1082.9540438940749,1083.986635726993,1083.986635726993,None,1083.986635726993,None,space,1083.986635726993,None,1.0341,1084.4360825039912,None,0.3122726279543713,,,,,,,DEC013,001,2022_Aug_23_1327,2-25_cond_decay_EYE-try,2021.2.3,120.1773708384012,
left,0.75,1.0,0,1,0,1,0,3,0,3,0,1,7,17,3,,,,,,,,,,,,,,,3s,1085.4874346040888,1086.4866619670065,1086.4786696810042,None,1087.4789752820507,1089.8531209100038,1087.4789752820507,1089.8531209100038,1089.8531209100038,None,1089.8531209100038,None,space,1089.8531209100038,None,2.3728,1090.2271928970004,None,0.2378023169003427,,,,,,,DEC013,001,2022_Aug_23_1327,2-25_cond_decay_EYE-try,2021.2.3,120.1773708384012,
left,0.75,1.0,0,1,0,1,0,3,0,3,0,1,8,18,7,,,,,,,,,,,,,,,3s,1091.2776236440986,1092.279265144025,1092.2702311290195,None,1093.2703701080754,1093.6874532590155,1093.2703701080754,1093.6874532590155,1093.6874532590155,None,1093.6874532590155,None,space,1093.6874532590155,None,0.4172,1094.1440741750412,None,0.3234804429812357,,,,,,,DEC013,001,2022_Aug_23_1327,2-25_cond_decay_EYE-try,2021.2.3,120.1773708384012,
left,0.75,1.0,0,1,0,1,0,3,0,3,0,1,9,19,9,,,,,,,,,,,,,,,3s,1095.1860257789958,1096.1866450010566,1096.178526823991,None,1097.1782995160902,1098.7455804960337,1097.1782995160902,1098.7455804960337,1098.7455804960337,None,1098.7455804960337,None,space,1098.7455804960337,None,1.5659,1099.1526583380764,None,0.2734182219719514,,,,,,,DEC013,001,2022_Aug_23_1327,2-25_cond_decay_EYE-try,2021.2.3,120.1773708384012,
,,,,1,0,1,0,3,0,3,0,,,,,,,,,,,,,,,,,,,,,,,,,,,,,,,,,,,,,,,,,,,,,DEC013,001,2022_Aug_23_1327,2-25_cond_decay_EYE-try,2021.2.3,120.1773708384012,
,,,,1,0,1,0,,,,,,,,,,,,,,,,,,,,,,,,,,,,,,,,,,,,,,,,,,,1100.0445223849965,None,1100.0445223849965,None,1100.0445223849965,None,DEC013,001,2022_Aug_23_1327,2-25_cond_decay_EYE-try,2021.2.3,120.1773708384012,
left,1.0,0.75,1,2,0,2,0,0,0,0,0,0,0,0,8,,,,,,,,,1105.044317597989,None,1105.044317597989,None,1105.044317597989,None,3s,1117.8525461230893,1118.8542060630862,1118.846018535085,None,1119.845852492028,1121.7544024470262,1119.845852492028,1121.7544024470262,1121.7455866331002,None,1121.7455866331002,None,space,1121.7455866331002,None,1.9065,1122.2189378740732,None,0.3373419060371816,,,,,,,DEC013,001,2022_Aug_23_1327,2-25_cond_decay_EYE-try,2021.2.3,120.1773708384012,
left,0.75,1.0,0,2,0,2,0,0,0,0,0,0,1,1,2,,,,,,,,,,,,,,,3s,1123.2696898250142,1124.2712220400572,1124.2622727380367,None,1125.2618975320365,1126.6372223700164,1125.2618975320365,1126.6372223700164,1126.6291602440178,None,1126.6291602440178,None,space,1126.6291602440178,None,1.3699,1127.0364116260316,None,0.2697675459785387,,,,,,,DEC013,001,2022_Aug_23_1327,2-25_cond_decay_EYE-try,2021.2.3,120.1773708384012,
right,1.0,0.75,0,2,0,2,0,0,0,0,0,0,2,2,1,,,,,,,,,,,,,,,3s,1128.0941465490032,1129.09570535901,1129.0875784630189,None,1130.0875459250528,1131.2957530660788,1130.0875459250528,1131.2957530660788,1131.2877363100415,None,1131.2877363100415,None,space,1131.2877363100415,None,1.2018,1131.702715551015,None,0.2751906079938635,,,,,,,DEC013,001,2022_Aug_23_1327,2-25_cond_decay_EYE-try,2021.2.3,120.1773708384012,
right,1.0,0.75,0,2,0,2,0,0,0,0,0,0,3,3,7,,,,,,,,,,,,,,,3s,1132.7533594330307,1133.754155887058,1133.7452027550898,None,1134.7457050910452,1135.1873766900972,1134.7457050910452,1135.1873766900972,1135.1793117700145,None,1135.1793117700145,None,space,1135.1793117700145,None,0.4375,1135.662426006049,None,0.351617086911574,,,,,,,DEC013,001,2022_Aug_23_1327,2-25_cond_decay_EYE-try,2021.2.3,120.1773708384012,
left,0.75,1.0,0,2,0,2,0,0,0,0,0,0,4,4,4,,,,,,,,,,,,,,,3s,1136.7207406400703,1137.72121113108,1137.712085415027,None,1138.712945067091,1141.1040165390586,1138.712945067091,1141.1040165390586,1141.1040165390586,None,1141.1040165390586,None,space,1141.1040165390586,None,2.391,1141.494247870054,None,0.2509118140442297,,,,,,,DEC013,001,2022_Aug_23_1327,2-25_cond_decay_EYE-try,2021.2.3,120.1773708384012,
right,1.0,0.75,0,2,0,2,0,0,0,0,0,0,5,5,5,,,,,,,,,,,,,,,3s,1142.5531184860738,1143.5537533520255,1143.5377660550876,None,1144.5379086020403,1145.829693720094,1144.5379086020403,1145.829693720094,1145.829693720094,None,1145.829693720094,None,space,1145.829693720094,None,1.2876,1146.2608564080438,None,0.2933055590838194,,,,,,,DEC013,001,2022_Aug_23_1327,2-25_cond_decay_EYE-try,2021.2.3,120.1773708384012,
left,1.0,0.75,1,2,0,2,0,0,0,0,0,0,6,6,0,,,,,,,,,,,,,,,3s,1147.3196757470723,1148.321310903062,1148.3131044260226,None,1149.3126869990956,1151.8958613600116,1149.3126869990956,1151.8958613600116,1151.8880935090128,None,1151.8880935090128,None,space,1151.8880935090128,None,2.5757,1152.3368269880302,None,0.31492908392101526,,,,,,,DEC013,001,2022_Aug_23_1327,2-25_cond_decay_EYE-try,2021.2.3,120.1773708384012,
left,0.75,1.0,0,2,0,2,0,0,0,0,0,0,7,7,6,,,,,,,,,,,,,,,3s,1153.39480129804,1154.3958870010683,1154.3789886030136,None,1155.3788623680593,1157.7882552579977,1155.3788623680593,1157.7882552579977,1157.7882552579977,None,1157.7882552579977,None,space,1157.7882552579977,None,2.4075,1158.1944817180047,None,0.27068315201904625,,,,,,,DEC013,001,2022_Aug_23_1327,2-25_cond_decay_EYE-try,2021.2.3,120.1773708384012,
right,1.0,0.75,0,2,0,2,0,0,0,0,0,0,8,8,3,,,,,,,,,,,,,,,3s,1159.2527675200254,1160.2548288420076,1160.2455910830759,None,1161.2465472330805,1162.5290726020467,1161.2465472330805,1162.5290726020467,1162.5211893650703,None,1162.5211893650703,None,space,1162.5211893650703,None,1.2812,1163.0444037920097,None,0.3857384850271046,,,,,,,DEC013,001,2022_Aug_23_1327,2-25_cond_decay_EYE-try,2021.2.3,120.1773708384012,
right,0.75,1.0,1,2,0,2,0,0,0,0,0,0,9,9,9,,,,,,,,,,,,,,,3s,1164.095085900044,1165.0956407760968,1165.087992773042,None,1166.08828176104,1168.321041744086,1166.08828176104,1168.321041744086,1168.321041744086,None,1168.321041744086,None,space,1168.321041744086,None,2.2311,1168.712047972018,None,0.2579336090711877,,,,,,,DEC013,001,2022_Aug_23_1327,2-25_cond_decay_EYE-try,2021.2.3,120.1773708384012,
left,0.75,1.0,0,2,0,2,0,0,0,0,0,1,0,10,4,,,,,,,,,,,,,,,3s,1169.7613496220438,1170.762607924058,1170.7546517710434,None,1171.7542710830458,1172.0715134160127,1171.7542710830458,1172.0715134160127,1172.0715134160127,None,1172.0715134160127,None,space,1172.0715134160127,None,0.3167,1172.5698751050513,None,0.3634155089966953,,,,,,,DEC013,001,2022_Aug_23_1327,2-25_cond_decay_EYE-try,2021.2.3,120.1773708384012,
right,1.0,0.75,0,2,0,2,0,0,0,0,0,1,1,11,1,,,,,,,,,,,,,,,3s,1173.6287701800466,1174.6295132900123,1174.6215342660435,None,1175.621811757097,1177.5211257250048,1175.621811757097,1177.5211257250048,1177.5129495710135,None,1177.5129495710135,None,space,1177.5129495710135,None,1.8967,1177.9114379910752,None,0.26608277193736285,,,,,,,DEC013,001,2022_Aug_23_1327,2-25_cond_decay_EYE-try,2021.2.3,120.1773708384012,
left,0.75,1.0,0,2,0,2,0,0,0,0,0,1,2,12,2,,,,,,,,,,,,,,,3s,1178.9696873240173,1179.9715599670308,1179.9624850080581,None,1180.9630004530773,1183.512685402995,1180.9630004530773,1183.512685402995,1183.5047403570497,None,1183.5047403570497,None,space,1183.5047403570497,None,2.5434,1183.903648368083,None,0.2581932069733739,,,,,,,DEC013,001,2022_Aug_23_1327,2-25_cond_decay_EYE-try,2021.2.3,120.1773708384012,
left,1.0,0.75,1,2,0,2,0,0,0,0,0,1,3,13,0,,,,,,,,,,,,,,,3s,1184.9534135250142,1185.9544399690349,1185.9380959750852,None,1186.9384928520303,1189.562746746,1186.9384928520303,1189.562746746,1189.5547148720361,None,1189.5547148720361,None,space,1189.5547148720361,None,2.6193,1189.9785642820643,None,0.2882317319745198,,,,,,,DEC013,001,2022_Aug_23_1327,2-25_cond_decay_EYE-try,2021.2.3,120.1773708384012,
right,0.75,1.0,1,2,0,2,0,0,0,0,0,1,4,14,9,,,,,,,,,,,,,,,3s,1191.0373045600718,1192.03853527701,1192.021261085989,None,1193.0217360820388,1194.863365917001,1193.0217360820388,1194.863365917001,1194.863365917001,None,1194.863365917001,None,space,1194.863365917001,None,1.8374,1195.3869405690348,None,0.3875632369890809,,,,,,,DEC013,001,2022_Aug_23_1327,2-25_cond_decay_EYE-try,2021.2.3,120.1773708384012,
right,1.0,0.75,0,2,0,2,0,0,0,0,0,1,5,15,7,,,,,,,,,,,,,,,3s,1196.4372129460098,1197.4384375570808,1197.429350540042,None,1198.4298726830166,1199.263328729081,1198.4298726830166,1199.263328729081,1199.2553002140485,None,1199.2553002140485,None,space,1199.2553002140485,None,0.8283,1199.7452406180091,None,0.3557025019545108,,,,,,,DEC013,001,2022_Aug_23_1327,2-25_cond_decay_EYE-try,2021.2.3,120.1773708384012,
left,0.75,1.0,0,2,0,2,0,0,0,0,0,1,6,16,8,,,,,,,,,,,,,,,3s,1200.8039269620785,1201.8047272020485,1201.7964473230531,None,1202.7966879330343,1203.0052319620736,1202.7966879330343,1203.0052319620736,1202.9961920120986,None,1202.9961920120986,None,space,1202.9961920120986,None,0.2046,1203.4548483490944,None,0.3267447950784117,,,,,,,DEC013,001,2022_Aug_23_1327,2-25_cond_decay_EYE-try,2021.2.3,120.1773708384012,
right,1.0,0.75,0,2,0,2,0,0,0,0,0,1,7,17,3,,,,,,,,,,,,,,,3s,1204.5197710210923,1205.5218684240244,1205.512988478993,None,1206.5128073140513,1206.921162826009,1206.5128073140513,1206.921162826009,1206.913089756039,None,1206.913089756039,None,space,1206.913089756039,None,0.4017,1207.3119566660607,None,0.2659188751131296,,,,,,,DEC013,001,2022_Aug_23_1327,2-25_cond_decay_EYE-try,2021.2.3,120.1773708384012,
right,1.0,0.75,0,2,0,2,0,0,0,0,0,1,8,18,5,,,,,,,,,,,,,,,3s,1208.362394868047,1209.36277277302,1209.347098531085,None,1210.346978230984,1211.9799473599996,1210.346978230984,1211.9799473599996,1211.9799473599996,None,1211.9799473599996,None,space,1211.9799473599996,None,1.6309,1212.394860311062,None,0.2790602259337902,,,,,,,DEC013,001,2022_Aug_23_1327,2-25_cond_decay_EYE-try,2021.2.3,120.1773708384012,
left,0.75,1.0,0,2,0,2,0,0,0,0,0,1,9,19,6,,,,,,,,,,,,,,,3s,1213.4534356290242,1214.455007334007,1214.4465489950962,None,1215.4466225140495,1218.39643035701,1215.4466225140495,1218.39643035701,1218.39643035701,None,1218.39643035701,None,space,1218.39643035701,None,2.9502,1218.7873055520467,None,0.2545052169589326,,,,,,,DEC013,001,2022_Aug_23_1327,2-25_cond_decay_EYE-try,2021.2.3,120.1773708384012,
,,,,2,0,2,0,0,0,0,0,,,,,,,,,,,,,,,,,,,,,,,,,,,,,,,,,,,,,,,,,,,,,DEC013,001,2022_Aug_23_1327,2-25_cond_decay_EYE-try,2021.2.3,120.1773708384012,
right,1.0,0.75,0,2,0,2,0,1,0,1,0,0,0,0,6,,,,,,,,,1219.6782492500497,None,1219.6782492500497,None,1219.6782492500497,None,5s,1224.337129931082,1225.3380650260951,1225.3302027970785,None,1226.3299162620679,1227.0551235220628,1226.3299162620679,1227.0551235220628,1227.0470142720733,None,1227.0470142720733,None,space,1227.0470142720733,None,0.7231,1227.4874973660335,None,0.30799916002433747,,,,,,,DEC013,001,2022_Aug_23_1327,2-25_cond_decay_EYE-try,2021.2.3,120.1773708384012,
left,0.75,1.0,0,2,0,2,0,1,0,1,0,0,1,1,2,,,,,,,,,,,,,,,5s,1228.545028304099,1229.5469030640088,1229.5299198270077,None,1230.5296562230214,1232.8220987720415,1230.5296562230214,1232.8220987720415,1232.8220987720415,None,1232.8220987720415,None,space,1232.8220987720415,None,2.2851,1233.2370375130558,None,0.27682461705990136,,,,,,,DEC013,001,2022_Aug_23_1327,2-25_cond_decay_EYE-try,2021.2.3,120.1773708384012,
right,0.75,1.0,1,2,0,2,0,1,0,1,0,0,2,2,4,,,,,,,,,,,,,,,5s,1234.2961455730256,1235.2970178450923,1235.288969851099,None,1236.2886735660722,1238.8137619399931,1236.2886735660722,1238.8137619399931,1238.8047098030802,None,1238.8047098030802,None,space,1238.8047098030802,None,2.5214,1239.25499273499,None,0.3182346220128238,,,,,,,DEC013,001,2022_Aug_23_1327,2-25_cond_decay_EYE-try,2021.2.3,120.1773708384012,
left,0.75,1.0,0,2,0,2,0,1,0,1,0,0,3,3,9,,,,,,,,,,,,,,,5s,1240.320727630984,1241.3219395180931,1241.3132574449992,None,1242.313999360078,1242.9221171539975,1242.313999360078,1242.9221171539975,1242.9140021540225,None,1242.9140021540225,None,space,1242.9140021540225,None,0.6034,1243.3878799329977,None,0.3369522789726034,,,,,,,DEC013,001,2022_Aug_23_1327,2-25_cond_decay_EYE-try,2021.2.3,120.1773708384012,
left,0.75,1.0,0,2,0,2,0,1,0,1,0,0,4,4,8,,,,,,,,,,,,,,,5s,1244.4377840150846,1245.4388186089927,1245.4224474020302,None,1246.421571367071,1250.6137617190834,1246.421571367071,1250.6137617190834,1250.6059520870913,None,1250.6059520870913,None,space,1250.6059520870913,None,4.1856,1251.004483181052,None,0.2609917930094525,,,,,,,DEC013,001,2022_Aug_23_1327,2-25_cond_decay_EYE-try,2021.2.3,120.1773708384012,
right,1.0,0.75,0,2,0,2,0,1,0,1,0,0,5,5,3,,,,,,,,,,,,,,,5s,1252.0626558620716,1253.0635513290763,1253.055219622096,None,1254.0553902890533,1254.9637516750954,1254.0553902890533,1254.9637516750954,1254.9556174980244,None,1254.9556174980244,None,space,1254.9556174980244,None,0.9045,1255.4207823940087,None,0.3273249629419297,,,,,,,DEC013,001,2022_Aug_23_1327,2-25_cond_decay_EYE-try,2021.2.3,120.1773708384012,
right,1.0,0.75,0,2,0,2,0,1,0,1,0,0,6,6,5,,,,,,,,,,,,,,,5s,1256.4708487170283,1257.472388425027,1257.472388425027,None,1258.4721680569928,1259.9387696339982,1258.4721680569928,1259.9387696339982,1259.9300338620087,None,1259.9300338620087,None,space,1259.9300338620087,None,1.4629,1260.3709632770624,None,0.3049106990220025,,,,,,,DEC013,001,2022_Aug_23_1327,2-25_cond_decay_EYE-try,2021.2.3,120.1773708384012,
left,1.0,0.75,1,2,0,2,0,1,0,1,0,0,7,7,1,,,,,,,,,,,,,,,5s,1261.4295358030358,1262.430686629028,1262.4136357430834,None,1263.413917204016,1263.9383662639884,1263.413917204016,1263.9383662639884,1263.9383662639884,None,1263.9383662639884,None,None,1263.9383662639884,None,0.5245,1265.0627100170823,None,,,,,,,,DEC013,001,2022_Aug_23_1327,2-25_cond_decay_EYE-try,2021.2.3,120.1773708384012,
right,1.0,0.75,0,2,0,2,0,1,0,1,0,0,8,8,0,,,,,,,,,,,,,,,5s,1266.120526793995,1267.1220430450048,1267.1055491340812,None,1268.1052066520788,1270.013426556019,1268.1052066520788,1270.013426556019,1270.013426556019,None,1270.013426556019,None,space,1270.013426556019,None,1.9072,1270.4542200469878,None,0.30152477393858135,,,,,,,DEC013,001,2022_Aug_23_1327,2-25_cond_decay_EYE-try,2021.2.3,120.1773708384012,
left,0.75,1.0,0,2,0,2,0,1,0,1,0,0,9,9,7,,,,,,,,,,,,,,,5s,1271.5038869749987,1272.5050793790724,1272.4969673540909,None,1273.4971953519853,1276.4891159770777,1273.4971953519853,1276.4891159770777,1276.4891159770777,None,1276.4891159770777,None,space,1276.4891159770777,None,2.9895,1276.9210118670017,None,0.2979000019840896,,,,,,,DEC013,001,2022_Aug_23_1327,2-25_cond_decay_EYE-try,2021.2.3,120.1773708384012,
right,1.0,0.75,0,2,0,2,0,1,0,1,0,1,0,10,5,,,,,,,,,,,,,,,5s,1277.9721711070742,1278.9721186930547,1278.9640430520521,None,1279.9641471270006,1284.8721654990222,1279.9641471270006,1284.8721654990222,1284.8721654990222,None,1284.8721654990222,None,space,1284.8721654990222,None,4.9077,1285.3547436590306,None,0.34678318293299526,,,,,,,DEC013,001,2022_Aug_23_1327,2-25_cond_decay_EYE-try,2021.2.3,120.1773708384012,
right,1.0,0.75,0,2,0,2,0,1,0,1,0,1,1,11,6,,,,,,,,,,,,,,,5s,1286.405336940079,1287.4062034710078,1287.3972061740933,None,1288.3969494639896,1290.955940861022,1288.3969494639896,1290.955940861022,1290.9477841800544,None,1290.9477841800544,None,space,1290.9477841800544,None,2.5528,1291.379663522006,None,0.29515743802767247,,,,,,,DEC013,001,2022_Aug_23_1327,2-25_cond_decay_EYE-try,2021.2.3,120.1773708384012,
right,1.0,0.75,0,2,0,2,0,1,0,1,0,1,2,12,3,,,,,,,,,,,,,,,5s,1292.429338056012,1293.4310760180233,1293.422160036047,None,1294.422941396013,1298.1470810550964,1294.422941396013,1298.1470810550964,1298.1470810550964,None,1298.1470810550964,None,space,1298.1470810550964,None,3.7199,1298.738213856006,None,0.45586842694319785,,,,,,,DEC013,001,2022_Aug_23_1327,2-25_cond_decay_EYE-try,2021.2.3,120.1773708384012,
right,1.0,0.75,0,2,0,2,0,1,0,1,0,1,3,13,0,,,,,,,,,,,,,,,5s,1299.7875786660006,1300.7891271000262,1300.7804813790135,None,1301.7806727600982,1303.3060922150034,1301.7806727600982,1303.3060922150034,1303.2970819930779,1304.297060839017,1303.2970819930779,1304.297060839017,None,1303.2970819930779,1304.297060839017,1.5196,1304.4296268190956,None,,,,,,,,DEC013,001,2022_Aug_23_1327,2-25_cond_decay_EYE-try,2021.2.3,120.1773708384012,
right,0.75,1.0,1,2,0,2,0,1,0,1,0,1,4,14,4,,,,,,,,,,,,,,,5s,1305.479294266086,1306.4809992890805,1306.4729291710537,None,1307.4727517550346,1308.7730703910347,1307.4727517550346,1308.7730703910347,1308.7640027010348,None,1308.7640027010348,None,space,1308.7640027010348,None,1.2977,1309.2294452760834,None,0.3269500629976392,,,,,,,DEC013,001,2022_Aug_23_1327,2-25_cond_decay_EYE-try,2021.2.3,120.1773708384012,
left,0.75,1.0,0,2,0,2,0,1,0,1,0,1,5,15,9,,,,,,,,,,,,,,,5s,1310.2796625300543,1311.2811418690253,1311.2729831890902,None,1312.2723717910703,1315.9232072380837,1312.2723717910703,1315.9232072380837,1315.9232072380837,None,1315.9232072380837,None,space,1315.9232072380837,None,3.6501,1316.32100958901,None,0.2637442520353943,,,,,,,DEC013,001,2022_Aug_23_1327,2-25_cond_decay_EYE-try,2021.2.3,120.1773708384012,
left,0.75,1.0,0,2,0,2,0,1,0,1,0,1,6,16,8,,,,,,,,,,,,,,,5s,1317.371283329092,1318.3726978030754,1318.3726978030754,None,1319.3724474230548,1323.4566078979988,1319.3724474230548,1323.4566078979988,1323.4566078979988,None,1323.4566078979988,None,space,1323.4566078979988,None,4.084,1323.86281868699,None,0.27440089301671833,,,,,,,DEC013,001,2022_Aug_23_1327,2-25_cond_decay_EYE-try,2021.2.3,120.1773708384012,
left,0.75,1.0,0,2,0,2,0,1,0,1,0,1,7,17,2,,,,,,,,,,,,,,,5s,1324.913680918049,1325.9147782319924,1325.9057343680179,None,1326.9057768130442,1328.8643820009893,1326.9057768130442,1328.8643820009893,1328.8643820009893,None,1328.8643820009893,None,space,1328.8643820009893,None,1.9579,1329.4465187680908,None,0.4426292850403115,,,,,,,DEC013,001,2022_Aug_23_1327,2-25_cond_decay_EYE-try,2021.2.3,120.1773708384012,
left,1.0,0.75,1,2,0,2,0,1,0,1,0,1,8,18,1,,,,,,,,,,,,,,,5s,1330.4976020820905,1331.497685711016,1331.489698450081,None,1332.489389789058,1334.1146827040939,1332.489389789058,1334.1146827040939,1334.1146827040939,None,1334.1146827040939,None,space,1334.1146827040939,None,1.6237,1334.5899582720594,None,0.3442496310453862,,,,,,,DEC013,001,2022_Aug_23_1327,2-25_cond_decay_EYE-try,2021.2.3,120.1773708384012,
left,0.75,1.0,0,2,0,2,0,1,0,1,0,1,9,19,7,,,,,,,,,,,,,,,5s,1335.6469581900164,1336.6476227100939,1336.6399787690025,None,1337.6393232829869,1338.981578845065,1337.6393232829869,1338.981578845065,1338.981578845065,None,1338.981578845065,None,space,1338.981578845065,None,1.3419,1339.4630524250679,None,0.3413796399254352,,,,,,,DEC013,001,2022_Aug_23_1327,2-25_cond_decay_EYE-try,2021.2.3,120.1773708384012,
,,,,2,0,2,0,1,0,1,0,,,,,,,,,,,,,,,,,,,,,,,,,,,,,,,,,,,,,,,,,,,,,DEC013,001,2022_Aug_23_1327,2-25_cond_decay_EYE-try,2021.2.3,120.1773708384012,
right,1.0,0.75,0,2,0,2,0,2,0,2,0,0,0,0,5,,,,,,,,,1340.3546096690698,None,1340.3546096690698,None,1340.3546096690698,None,10s,1351.0470484080724,1352.0485106160631,1352.0403084179852,None,1353.0394254639978,1357.7143589950865,1353.0394254639978,1357.7143589950865,1357.7061434810748,None,1357.7061434810748,None,space,1357.7061434810748,None,4.6679,1358.1888961790828,None,0.34486895706504583,,,,,,,DEC013,001,2022_Aug_23_1327,2-25_cond_decay_EYE-try,2021.2.3,120.1773708384012,
right,1.0,0.75,0,2,0,2,0,2,0,2,0,0,1,1,0,,,,,,,,,,,,,,,10s,1359.2394134480273,1360.2402022150345,1360.2310607760446,None,1361.2311656840611,1362.347848208039,1361.2311656840611,1362.347848208039,1362.33970968402,None,1362.33970968402,None,space,1362.33970968402,None,1.1107,1362.8048586230725,None,0.3272490039234981,,,,,,,DEC013,001,2022_Aug_23_1327,2-25_cond_decay_EYE-try,2021.2.3,120.1773708384012,
left,0.75,1.0,0,2,0,2,0,2,0,2,0,0,2,2,2,,,,,,,,,,,,,,,10s,1363.8639333210886,1364.8653216680977,1364.856494768057,None,1365.8569762579864,1366.7898928150535,1365.8569762579864,1366.7898928150535,1366.78170412709,None,1366.78170412709,None,space,1366.78170412709,None,0.9261,1367.2486868620617,None,0.3332548150792718,,,,,,,DEC013,001,2022_Aug_23_1327,2-25_cond_decay_EYE-try,2021.2.3,120.1773708384012,
left,1.0,0.75,1,2,0,2,0,2,0,2,0,0,3,3,9,,,,,,,,,,,,,,,10s,1368.3051952020032,1369.306177380029,1369.2894785830285,None,1370.2902103150263,1373.5811895650113,1370.2902103150263,1373.5811895650113,1373.5811895650113,None,1373.5811895650113,None,space,1373.5811895650113,None,3.2904,1374.0634832500946,None,0.3498760990332812,,,,,,,DEC013,001,2022_Aug_23_1327,2-25_cond_decay_EYE-try,2021.2.3,120.1773708384012,
left,0.75,1.0,0,2,0,2,0,2,0,2,0,0,4,4,4,,,,,,,,,,,,,,,10s,1375.1131184310652,1376.1151211120887,1376.0981798000867,None,1377.098841266008,1386.6155077600852,1377.098841266008,1386.6155077600852,1386.6155077600852,None,1386.6155077600852,None,space,1386.6155077600852,None,9.5165,1387.0556424990064,None,0.3075285229133442,,,,,,,DEC013,001,2022_Aug_23_1327,2-25_cond_decay_EYE-try,2021.2.3,120.1773708384012,
right,1.0,0.75,0,2,0,2,0,2,0,2,0,0,5,5,7,,,,,,,,,,,,,,,10s,1388.114222979988,1389.1153160440736,1389.1066855230602,None,1390.1068375690375,1390.5070513950195,1390.1068375690375,1390.5070513950195,1390.4989277560962,None,1390.4989277560962,None,space,1390.4989277560962,None,0.3961,1391.0472877920838,None,0.41602347407024354,,,,,,,DEC013,001,2022_Aug_23_1327,2-25_cond_decay_EYE-try,2021.2.3,120.1773708384012,
left,0.75,1.0,0,2,0,2,0,2,0,2,0,0,6,6,1,,,,,,,,,,,,,,,10s,1392.1060768340249,1393.1070136370836,1393.0899295629933,None,1394.09054186102,1403.8648460560944,1394.09054186102,1403.8648460560944,1403.8569196320605,None,1403.8569196320605,None,space,1403.8569196320605,None,9.7683,1404.3136747610988,None,0.32204410596750677,,,,,,,DEC013,001,2022_Aug_23_1327,2-25_cond_decay_EYE-try,2021.2.3,120.1773708384012,
right,1.0,0.75,0,2,0,2,0,2,0,2,0,0,7,7,8,,,,,,,,,,,,,,,10s,1405.3638048711,1406.364792751032,1406.3567011751002,None,1407.3572366480948,1412.3233850540128,1407.3572366480948,1412.3233850540128,1412.3155131289968,None,1412.3155131289968,None,space,1412.3155131289968,None,4.9604,1412.8808530539973,None,0.431455344078131,,,,,,,DEC013,001,2022_Aug_23_1327,2-25_cond_decay_EYE-try,2021.2.3,120.1773708384012,
right,0.75,1.0,1,2,0,2,0,2,0,2,0,0,8,8,3,,,,,,,,,,,,,,,10s,1413.9237215950852,1414.9237468410283,1414.915120300022,None,1415.915092203999,1422.0907680559903,1415.915092203999,1422.0907680559903,1422.0907680559903,None,1422.0907680559903,None,space,1422.0907680559903,None,6.1721,1422.5395860309945,None,0.31219016504473984,,,,,,,DEC013,001,2022_Aug_23_1327,2-25_cond_decay_EYE-try,2021.2.3,120.1773708384012,
left,0.75,1.0,0,2,0,2,0,2,0,2,0,0,9,9,6,,,,,,,,,,,,,,,10s,1423.5974737980869,1424.598505608039,1424.5905042430386,None,1425.5825267160544,1428.0826553910738,1425.5825267160544,1428.0826553910738,1428.0826553910738,None,1428.0826553910738,None,space,1428.0826553910738,None,2.4975,1428.581479440094,None,0.3603043539915234,,,,,,,DEC013,001,2022_Aug_23_1327,2-25_cond_decay_EYE-try,2021.2.3,120.1773708384012,
right,0.75,1.0,1,2,0,2,0,2,0,2,0,1,0,10,3,,,,,,,,,,,,,,,10s,1429.6394425519975,1430.641095285071,1430.6320015430683,None,1431.632321650046,1437.4743827290367,1431.632321650046,1437.4743827290367,1437.4743827290367,None,1437.4743827290367,None,space,1437.4743827290367,None,5.8398,1437.8889362390619,None,0.28058897296432406,,,,,,,DEC013,001,2022_Aug_23_1327,2-25_cond_decay_EYE-try,2021.2.3,120.1773708384012,
left,0.75,1.0,0,2,0,2,0,2,0,2,0,1,1,11,4,,,,,,,,,,,,,,,10s,1438.947566421004,1439.9490147239994,1439.940868366044,None,1440.9402592300903,1446.7153038349934,1440.9402592300903,1446.7153038349934,1446.7153038349934,None,1446.7153038349934,None,space,1446.7153038349934,None,5.7759,1447.1561270970851,None,0.3037413669517264,,,,,,,DEC013,001,2022_Aug_23_1327,2-25_cond_decay_EYE-try,2021.2.3,120.1773708384012,
right,1.0,0.75,0,2,0,2,0,2,0,2,0,1,2,12,8,,,,,,,,,,,,,,,10s,1448.21433110605,1449.215526118991,1449.2077482430032,None,1450.2078045050148,1456.8411226130556,1450.2078045050148,1456.8411226130556,1456.8321321080439,None,1456.8321321080439,None,space,1456.8321321080439,None,6.6266,1457.3489577970468,None,0.3868240020237863,,,,,,,DEC013,001,2022_Aug_23_1327,2-25_cond_decay_EYE-try,2021.2.3,120.1773708384012,
left,0.75,1.0,0,2,0,2,0,2,0,2,0,1,3,13,2,,,,,,,,,,,,,,,10s,1458.4140589840245,1459.4160877080867,1459.3991707050009,None,1460.4080250520492,1467.999464227003,1460.4080250520492,1467.999464227003,1467.9913191710366,None,1467.9913191710366,None,None,1467.9913191710366,None,7.5914,1469.114963139058,None,,,,,,,,DEC013,001,2022_Aug_23_1327,2-25_cond_decay_EYE-try,2021.2.3,120.1773708384012,
left,0.75,1.0,0,2,0,2,0,2,0,2,0,1,4,14,1,,,,,,,,,,,,,,,10s,1470.164815062075,1471.1659893220058,1471.1580092490185,None,1472.157760111033,1479.0166258910904,1472.157760111033,1479.0166258910904,1479.0166258910904,None,1479.0166258910904,None,space,1479.0166258910904,None,6.8588,1479.432726068073,None,0.28239542397204787,,,,,,,DEC013,001,2022_Aug_23_1327,2-25_cond_decay_EYE-try,2021.2.3,120.1773708384012,
right,1.0,0.75,0,2,0,2,0,2,0,2,0,1,5,15,7,,,,,,,,,,,,,,,10s,1480.4827786360402,1481.4830722149927,1481.4744167430326,None,1482.4747005180689,1490.5165509020444,1482.4747005180689,1490.5165509020444,1490.5165509020444,None,1490.5165509020444,None,space,1490.5165509020444,None,8.0419,1490.722869197023,None,0.07043254398740828,,,,,,,DEC013,001,2022_Aug_23_1327,2-25_cond_decay_EYE-try,2021.2.3,120.1773708384012,
left,0.75,1.0,0,2,0,2,0,2,0,2,0,1,6,16,6,,,,,,,,,,,,,,,10s,1491.7816792010562,1492.782758150017,1492.774704415002,None,1493.774570203037,1499.7827634010464,1493.774570203037,1499.7827634010464,1499.7747459030943,None,1499.7747459030943,None,space,1499.7747459030943,None,6.0013,1500.389817464049,None,0.47622251394204795,,,,,,,DEC013,001,2022_Aug_23_1327,2-25_cond_decay_EYE-try,2021.2.3,120.1773708384012,
left,1.0,0.75,1,2,0,2,0,2,0,2,0,1,7,17,9,,,,,,,,,,,,,,,10s,1501.4486478780163,1502.4492788260104,1502.4334955509985,None,1503.433423367096,1511.6831239600433,1503.433423367096,1511.6831239600433,1511.6748410360888,None,1511.6748410360888,None,space,1511.6748410360888,None,8.2442,1512.3072587350616,None,0.4961412289412692,,,,,,,DEC013,001,2022_Aug_23_1327,2-25_cond_decay_EYE-try,2021.2.3,120.1773708384012,
right,1.0,0.75,0,2,0,2,0,2,0,2,0,1,8,18,5,,,,,,,,,,,,,,,10s,1513.358261342044,1514.3575114420382,1514.3496194829931,None,1515.3495614500716,1522.0165078570135,1515.3495614500716,1522.0165078570135,1522.0165078570135,None,1522.0165078570135,None,None,1522.0165078570135,None,6.6641,1523.1398723410675,None,,,,,,,,DEC013,001,2022_Aug_23_1327,2-25_cond_decay_EYE-try,2021.2.3,120.1773708384012,
right,1.0,0.75,0,2,0,2,0,2,0,2,0,1,9,19,0,,,,,,,,,,,,,,,10s,1524.190545830992,1525.1917340389919,1525.1835397380637,None,1526.1828856990905,1532.7662984210765,1526.1828856990905,1532.7662984210765,1532.758317432017,None,1532.758317432017,None,space,1532.758317432017,None,6.5781,1533.3405748159857,None,0.43666132097132504,,,,,,,DEC013,001,2022_Aug_23_1327,2-25_cond_decay_EYE-try,2021.2.3,120.1773708384012,
,,,,2,0,2,0,2,0,2,0,,,,,,,,,,,,,,,,,,,,,,,,,,,,,,,,,,,,,,,,,,,,,DEC013,001,2022_Aug_23_1327,2-25_cond_decay_EYE-try,2021.2.3,120.1773708384012,
right,1.0,0.75,0,2,0,2,0,3,0,3,0,0,0,0,5,,,,,,,,,1534.223492042045,None,1534.223492042045,None,1534.223492042045,None,1s,1540.7650243580574,1541.7663100090576,1541.758194242022,None,1542.7588440970285,1543.5501525760628,1542.7588440970285,1543.5501525760628,1543.541473246063,None,1543.541473246063,None,space,1543.541473246063,None,0.784,1543.9491201930214,None,0.2695057790260762,,,,,,,DEC013,001,2022_Aug_23_1327,2-25_cond_decay_EYE-try,2021.2.3,120.1773708384012,
left,0.75,1.0,0,2,0,2,0,3,0,3,0,0,1,1,9,,,,,,,,,,,,,,,1s,1544.998669667053,1546.0001222870778,1545.9922222580062,None,1546.9915014470462,1547.9670998620568,1546.9915014470462,1547.9670998620568,1547.9670998620568,None,1547.9670998620568,None,space,1547.9670998620568,None,0.974,1548.333472883096,None,0.2358745930250734,,,,,,,DEC013,001,2022_Aug_23_1327,2-25_cond_decay_EYE-try,2021.2.3,120.1773708384012,
right,1.0,0.75,0,2,0,2,0,3,0,3,0,0,2,2,0,,,,,,,,,,,,,,,1s,1549.3908702260815,1550.3921086339979,1550.383487515035,None,1551.3837940479862,1552.2504342450993,1551.3837940479862,1552.2504342450993,1552.2504342450993,None,1552.2504342450993,None,space,1552.2504342450993,None,0.8604,1552.6241003749892,None,0.24062538903672248,,,,,,,DEC013,001,2022_Aug_23_1327,2-25_cond_decay_EYE-try,2021.2.3,120.1773708384012,
left,0.75,1.0,0,2,0,2,0,3,0,3,0,0,3,3,1,,,,,,,,,,,,,,,1s,1553.674878217047,1554.6751823720988,1554.6751823720988,None,1555.674975552014,1556.6584759720135,1555.674975552014,1556.6584759720135,1556.6503538740799,None,1556.6503538740799,None,space,1556.6503538740799,None,0.9798,1557.0319376850966,None,0.24871638405602425,,,,,,,DEC013,001,2022_Aug_23_1327,2-25_cond_decay_EYE-try,2021.2.3,120.1773708384012,
right,1.0,0.75,0,2,0,2,0,3,0,3,0,0,4,4,6,,,,,,,,,,,,,,,1s,1558.090923027019,1559.0919079080923,1559.0838735430734,None,1560.0833031010116,1560.5089313450735,1560.0833031010116,1560.5089313450735,1560.5089313450735,None,1560.5089313450735,None,space,1560.5089313450735,None,0.423,1560.9235908770934,None,0.2780490959994495,,,,,,,DEC013,001,2022_Aug_23_1327,2-25_cond_decay_EYE-try,2021.2.3,120.1773708384012,
right,1.0,0.75,0,2,0,2,0,3,0,3,0,0,5,5,7,,,,,,,,,,,,,,,1s,1561.9754874010105,1562.9753747180803,1562.9673149760347,None,1563.966840887093,1564.44191502803,1563.966840887093,1564.44191502803,1564.44191502803,None,1564.44191502803,None,space,1564.44191502803,None,0.474,1564.8238533010008,None,0.249117425060831,,,,,,,DEC013,001,2022_Aug_23_1327,2-25_cond_decay_EYE-try,2021.2.3,120.1773708384012,
right,1.0,0.75,0,2,0,2,0,3,0,3,0,0,6,6,3,,,,,,,,,,,,,,,1s,1565.8752111170907,1566.874808514025,1566.866696121986,None,1567.8665438820608,1568.1925396930892,1567.8665438820608,1568.1925396930892,1568.1925396930892,None,1568.1925396930892,None,space,1568.1925396930892,None,0.3231,1568.5576960750623,None,0.22650580306071788,,,,,,,DEC013,001,2022_Aug_23_1327,2-25_cond_decay_EYE-try,2021.2.3,120.1773708384012,
left,0.75,1.0,0,2,0,2,0,3,0,3,0,0,7,7,4,,,,,,,,,,,,,,,1s,1569.6154624610208,1570.6167561979964,1570.608603925095,None,1571.6085941380588,1572.3005315520568,1571.6085941380588,1572.3005315520568,1572.3005315520568,None,1572.3005315520568,None,space,1572.3005315520568,None,0.6898,1572.6654357110383,None,0.2304389129858464,,,,,,,DEC013,001,2022_Aug_23_1327,2-25_cond_decay_EYE-try,2021.2.3,120.1773708384012,
left,0.75,1.0,0,2,0,2,0,3,0,3,0,0,8,8,8,,,,,,,,,,,,,,,1s,1573.715682109003,1574.7168119660346,1574.7087289980846,None,1575.7088243790204,1576.0084313380066,1575.7088243790204,1576.0084313380066,1576.0084313380066,None,1576.0084313380066,None,space,1576.0084313380066,None,0.3009,1576.4240911500528,None,0.28255681006703526,,,,,,,DEC013,001,2022_Aug_23_1327,2-25_cond_decay_EYE-try,2021.2.3,120.1773708384012,
left,1.0,0.75,1,2,0,2,0,3,0,3,0,0,9,9,2,,,,,,,,,,,,,,,1s,1577.4752252179896,1578.4757078629918,1578.4675531770336,None,1579.467584616039,1580.3082836160902,1579.467584616039,1580.3082836160902,1580.3082836160902,None,1580.3082836160902,None,space,1580.3082836160902,None,0.8393,1580.6826836899854,None,0.2387106129899621,,,,,,,DEC013,001,2022_Aug_23_1327,2-25_cond_decay_EYE-try,2021.2.3,120.1773708384012,
left,0.75,1.0,0,2,0,2,0,3,0,3,0,1,0,10,9,,,,,,,,,,,,,,,1s,1581.7325656299945,1582.7336780030746,1582.7255776550155,None,1583.7254654290155,1584.5751684900606,1583.7254654290155,1584.5751684900606,1584.5671937610023,None,1584.5671937610023,None,space,1584.5671937610023,None,0.8448,1584.9671399430372,None,0.26779658102896065,,,,,,,DEC013,001,2022_Aug_23_1327,2-25_cond_decay_EYE-try,2021.2.3,120.1773708384012,
right,1.0,0.75,0,2,0,2,0,3,0,3,0,1,1,11,7,,,,,,,,,,,,,,,1s,1586.0327248220565,1587.0342538570985,1587.0252339789877,None,1588.0254495590925,1588.7919518410927,1588.0254495590925,1588.7919518410927,1588.7841253060615,None,1588.7841253060615,None,space,1588.7841253060615,None,0.7625,1589.241431512055,None,0.32293394301086664,,,,,,,DEC013,001,2022_Aug_23_1327,2-25_cond_decay_EYE-try,2021.2.3,120.1773708384012,
right,0.75,1.0,1,2,0,2,0,3,0,3,0,1,2,12,5,,,,,,,,,,,,,,,1s,1590.290810314007,1591.2924293170217,1591.2924293170217,None,1592.2923789280467,1592.5836151810363,1592.2923789280467,1592.5836151810363,1592.5757529980037,None,1592.5757529980037,None,space,1592.5757529980037,None,0.2916,1592.9656495969975,None,0.2512963160406798,,,,,,,DEC013,001,2022_Aug_23_1327,2-25_cond_decay_EYE-try,2021.2.3,120.1773708384012,
left,0.75,1.0,0,2,0,2,0,3,0,3,0,1,3,13,4,,,,,,,,,,,,,,,1s,1594.024383438984,1595.0256212420063,1595.017497700057,None,1596.0172537739854,1596.6668777969899,1596.0172537739854,1596.6668777969899,1596.6668777969899,None,1596.6668777969899,None,space,1596.6668777969899,None,0.646,1597.0498483109986,None,0.24811052903532982,,,,,,,DEC013,001,2022_Aug_23_1327,2-25_cond_decay_EYE-try,2021.2.3,120.1773708384012,
left,0.75,1.0,0,2,0,2,0,3,0,3,0,1,4,14,8,,,,,,,,,,,,,,,1s,1598.101105964044,1599.1005879529985,1599.0924346140819,None,1600.0922496550484,1600.7759822390508,1600.0922496550484,1600.7759822390508,1600.7759822390508,None,1600.7759822390508,None,space,1600.7759822390508,None,0.6842,1601.1655918820761,None,0.25100418890360743,,,,,,,DEC013,001,2022_Aug_23_1327,2-25_cond_decay_EYE-try,2021.2.3,120.1773708384012,
left,0.75,1.0,0,2,0,2,0,3,0,3,0,1,5,15,1,,,,,,,,,,,,,,,1s,1602.2167995650088,1603.2172993480926,1603.209018808091,None,1604.2009472690988,1605.075249615009,1604.2009472690988,1605.075249615009,1605.075249615009,None,1605.075249615009,None,space,1605.075249615009,None,0.8703,1605.4324295840925,None,0.2238105849828571,,,,,,,DEC013,001,2022_Aug_23_1327,2-25_cond_decay_EYE-try,2021.2.3,120.1773708384012,
right,1.0,0.75,0,2,0,2,0,3,0,3,0,1,6,16,6,,,,,,,,,,,,,,,1s,1606.4832159230718,1607.484294256079,1607.4752342150314,None,1608.484216587036,1608.6752773349872,1608.484216587036,1608.6752773349872,1608.667302787071,None,1608.667302787071,None,space,1608.667302787071,None,0.1903,1609.190802441095,None,0.391791602014564,,,,,,,DEC013,001,2022_Aug_23_1327,2-25_cond_decay_EYE-try,2021.2.3,120.1773708384012,
left,1.0,0.75,1,2,0,2,0,3,0,3,0,1,7,17,2,,,,,,,,,,,,,,,1s,1610.249250499066,1611.2510341710877,1611.2428418830968,None,1612.2420469550416,1612.8588112570578,1612.2420469550416,1612.8588112570578,1612.8588112570578,None,1612.8588112570578,None,space,1612.8588112570578,None,0.6148,1613.2660938639892,None,0.27217889204621315,,,,,,,DEC013,001,2022_Aug_23_1327,2-25_cond_decay_EYE-try,2021.2.3,120.1773708384012,
