attn_cue,left_ob,right_ob,congruent,runs.thisRepN,runs.thisTrialN,runs.thisN,runs.thisIndex,blocks.thisRepN,blocks.thisTrialN,blocks.thisN,blocks.thisIndex,trials.thisRepN,trials.thisTrialN,trials.thisN,trials.thisIndex,welcome.started,welcome.stopped,text_2.started,text_2.stopped,init_key_resp.keys,init_key_resp.rt,init_key_resp.started,init_key_resp.stopped,text_3.started,text_3.stopped,text_4.started,text_4.stopped,text_5.started,text_5.stopped,block_num,texter.started,texter.stopped,cross.started,cross.stopped,left_star.started,left_star.stopped,right_star.started,right_star.stopped,left_2.started,left_2.stopped,right_2.started,right_2.stopped,key_resp.keys,key_resp.rt,key_resp.started,key_resp.stopped,Rand Tim,text.started,text.stopped,end.started,end.stopped,text_6.started,text_6.stopped,text_7.started,text_7.stopped,participant,session,date,expName,psychopyVersion,frameRate,
,,,,,,,,,,,,,,,,134.14538480201736,None,134.14538480201736,None,space,2.509027092019096,134.14538480201736,None,,,,,,,,,,,,,,,,,,,,,,,,,,,,,,,,,DEC018,001,2022_Nov_04_1511,2-25_cond_decay_EYE-try,2021.2.3,120.0197648768356,
left,0.75,1.0,0,0,0,0,0,0,0,0,0,0,0,0,3,,,,,,,,,136.6787280170247,None,136.6787280170247,None,136.6787280170247,None,5s,139.66077876009513,140.66211287805345,140.6453454620205,None,141.64538842008915,146.57880220201332,141.64538842008915,146.57880220201332,146.57880220201332,None,146.57880220201332,None,space,0.37787199998274446,146.57880220201332,None,4.9211,147.09552495810203,None,,,,,,,DEC018,001,2022_Nov_04_1511,2-25_cond_decay_EYE-try,2021.2.3,120.0197648768356,
left,0.75,1.0,0,0,0,0,0,0,0,0,0,0,1,1,8,,,,,,,,,,,,,,,5s,148.137198880082,149.13720948901027,149.1287985140225,None,150.12886593909934,154.51224918104708,150.12886593909934,154.51224918104708,154.5043599701021,None,154.5043599701021,None,space,0.4439953309483826,154.5043599701021,None,4.3789,155.07891879905947,None,,,,,,,DEC018,001,2022_Nov_04_1511,2-25_cond_decay_EYE-try,2021.2.3,120.0197648768356,
right,1.0,0.75,0,0,0,0,0,0,0,0,0,0,2,2,2,,,,,,,,,,,,,,,5s,156.13718426099513,157.13727209402714,157.12895070400555,None,158.13730696507264,159.47062727611046,158.13730696507264,159.47062727611046,159.45390629209578,None,159.45390629209578,None,space,0.4692261019954458,159.45390629209578,None,1.3307,160.05405788205098,None,,,,,,,DEC018,001,2022_Nov_04_1511,2-25_cond_decay_EYE-try,2021.2.3,120.0197648768356,
right,0.75,1.0,1,0,0,0,0,0,0,0,0,0,3,3,0,,,,,,,,,,,,,,,5s,161.12065236701164,162.12069243809674,162.09560969402082,None,163.0956998670008,167.35396834404673,163.0956998670008,167.35396834404673,167.35396834404673,None,167.35396834404673,None,None,,167.35396834404673,None,4.2547,168.48742636910174,None,,,,,,,DEC018,001,2022_Nov_04_1511,2-25_cond_decay_EYE-try,2021.2.3,120.0197648768356,
left,0.75,1.0,0,0,0,0,0,0,0,0,0,0,4,4,6,,,,,,,,,,,,,,,5s,169.53742108203005,170.53744274307974,170.52907816809602,None,171.52907037106343,174.66236532409675,171.52907037106343,174.66236532409675,174.6541183911031,None,174.6541183911031,None,space,0.5910445259651169,174.6541183911031,None,3.1277,175.37916973710526,None,,,,,,,DEC018,001,2022_Nov_04_1511,2-25_cond_decay_EYE-try,2021.2.3,120.0197648768356,
right,1.0,0.75,0,0,0,0,0,0,0,0,0,0,5,5,4,,,,,,,,,,,,,,,5s,176.4374122270383,177.43747665407136,177.42907680303324,None,178.42909479001537,181.6707794740796,178.42909479001537,181.6707794740796,181.6624657920329,None,181.6624657920329,None,space,0.42761735897511244,181.6624657920329,None,3.2371,182.22081558103673,None,,,,,,,DEC018,001,2022_Nov_04_1511,2-25_cond_decay_EYE-try,2021.2.3,120.0197648768356,
left,0.75,1.0,0,0,0,0,0,0,0,0,0,0,6,6,7,,,,,,,,,,,,,,,5s,183.2792162600672,184.2792443500366,184.2707978100516,None,185.27083793107886,187.12082829000428,185.27083793107886,187.12082829000428,187.1125385670457,None,187.1125385670457,None,space,0.528483479982242,187.1125385670457,None,1.8442,187.77095736109186,None,,,,,,,DEC018,001,2022_Nov_04_1511,2-25_cond_decay_EYE-try,2021.2.3,120.0197648768356,
left,0.75,1.0,0,0,0,0,0,0,0,0,0,0,7,7,9,,,,,,,,,,,,,,,5s,188.82083759910893,189.82098890503403,189.81255229504313,None,190.8293009790359,194.8043361530872,190.8293009790359,194.8043361530872,194.77090834407136,None,194.77090834407136,None,space,0.44108876097016037,194.77090834407136,None,3.9619,195.3376264910912,None,,,,,,,DEC018,001,2022_Nov_04_1511,2-25_cond_decay_EYE-try,2021.2.3,120.0197648768356,
right,1.0,0.75,0,0,0,0,0,0,0,0,0,0,8,8,5,,,,,,,,,,,,,,,5s,196.4030559801031,197.4043617200805,197.3876105051022,None,198.3960058511002,202.88769472809508,198.3960058511002,202.88769472809508,202.87934925802983,None,202.87934925802983,None,space,0.3505188790149987,202.87934925802983,None,4.4868,203.3614634370897,None,,,,,,,DEC018,001,2022_Nov_04_1511,2-25_cond_decay_EYE-try,2021.2.3,120.0197648768356,
right,1.0,0.75,0,0,0,0,0,0,0,0,0,0,9,9,1,,,,,,,,,,,,,,,5s,204.41986927902326,205.4293546640547,205.42111999203917,None,206.4043953641085,210.36281423503533,206.4043953641085,210.36281423503533,210.36281423503533,None,210.36281423503533,None,space,0.36090924800373614,210.36281423503533,None,3.9528,210.8544936120743,None,,,,,,,DEC018,001,2022_Nov_04_1511,2-25_cond_decay_EYE-try,2021.2.3,120.0197648768356,
right,0.75,1.0,1,0,0,0,0,0,0,0,0,1,0,10,0,,,,,,,,,,,,,,,5s,211.90454860008322,212.9045175469946,212.89608786907047,None,213.896103297011,218.1711560090771,213.896103297011,218.1711560090771,218.1711560090771,None,218.1711560090771,None,space,0.5694124570582062,218.1711560090771,None,4.272,218.87128408800345,None,,,,,,,DEC018,001,2022_Nov_04_1511,2-25_cond_decay_EYE-try,2021.2.3,120.0197648768356,
right,1.0,0.75,0,0,0,0,0,0,0,0,0,1,1,11,4,,,,,,,,,,,,,,,5s,219.92117520200554,220.92118102300446,220.9128861570498,None,221.9128488370916,225.77133767900523,221.9128488370916,225.77133767900523,225.77133767900523,None,225.77133767900523,None,space,0.4004509290680289,225.77133767900523,None,3.8572,226.29624557308853,None,,,,,,,DEC018,001,2022_Nov_04_1511,2-25_cond_decay_EYE-try,2021.2.3,120.0197648768356,
left,0.75,1.0,0,0,0,0,0,0,0,0,0,1,2,12,9,,,,,,,,,,,,,,,5s,227.37964595109224,228.3796690000454,228.35459121200256,None,229.35460674809292,231.42129822308198,229.35460674809292,231.42129822308198,231.41299782600254,None,231.41299782600254,None,space,0.4526841229526326,231.41299782600254,None,2.0616,231.99642447708175,None,,,,,,,DEC018,001,2022_Nov_04_1511,2-25_cond_decay_EYE-try,2021.2.3,120.0197648768356,
left,0.75,1.0,0,0,0,0,0,0,0,0,0,1,3,13,8,,,,,,,,,,,,,,,5s,233.05474521010183,234.05471575201955,234.04634316905867,None,235.04640352108981,237.1047750780126,235.04640352108981,237.1047750780126,237.0964350750437,None,237.0964350750437,None,space,0.4672496400307864,237.0964350750437,None,2.0541,237.6881178120384,None,,,,,,,DEC018,001,2022_Nov_04_1511,2-25_cond_decay_EYE-try,2021.2.3,120.0197648768356,
right,1.0,0.75,0,0,0,0,0,0,0,0,0,1,4,14,1,,,,,,,,,,,,,,,5s,238.7650396070676,239.7714617990423,239.7463853780646,None,240.74641400703695,243.53821661509573,240.74641400703695,243.53821661509573,243.52854438405484,None,243.52854438405484,None,space,0.3622054789448157,243.52854438405484,None,2.7713,244.0215362861054,None,,,,,,,DEC018,001,2022_Nov_04_1511,2-25_cond_decay_EYE-try,2021.2.3,120.0197648768356,
right,1.0,0.75,0,0,0,0,0,0,0,0,0,1,5,15,5,,,,,,,,,,,,,,,5s,245.07154749904294,246.07154462800827,246.0631253690226,None,247.06320505810436,248.42981667304412,247.06320505810436,248.42981667304412,248.42981667304412,None,248.42981667304412,None,space,0.49447672395035625,248.42981667304412,None,1.3652,249.0548940410372,None,,,,,,,DEC018,001,2022_Nov_04_1511,2-25_cond_decay_EYE-try,2021.2.3,120.0197648768356,
left,0.75,1.0,0,0,0,0,0,0,0,0,0,1,6,16,6,,,,,,,,,,,,,,,5s,250.1132898411015,251.11323512310628,251.11323512310628,None,252.10486718208995,255.99653035600204,252.10486718208995,255.99653035600204,255.99653035600204,None,255.99653035600204,None,space,0.4077813730109483,255.99653035600204,None,3.8917,256.5299463160336,None,,,,,,,DEC018,001,2022_Nov_04_1511,2-25_cond_decay_EYE-try,2021.2.3,120.0197648768356,
right,1.0,0.75,0,0,0,0,0,0,0,0,0,1,7,17,2,,,,,,,,,,,,,,,5s,257.5966974220937,258.5966729481006,258.5799387959996,None,259.58000662806444,262.60496491310187,259.58000662806444,262.60496491310187,262.60496491310187,None,262.60496491310187,None,space,0.46925028692930937,262.60496491310187,None,3.0179,263.20507037604693,None,,,,,,,DEC018,001,2022_Nov_04_1511,2-25_cond_decay_EYE-try,2021.2.3,120.0197648768356,
left,0.75,1.0,0,0,0,0,0,0,0,0,0,1,8,18,7,,,,,,,,,,,,,,,5s,264.26338781404775,265.26329741906375,265.25499829510227,None,266.2550279170973,268.605012964108,266.2550279170973,268.605012964108,268.5967638880247,None,268.5967638880247,None,space,0.38380329695064574,268.5967638880247,None,2.3433,269.1121541970642,None,,,,,,,DEC018,001,2022_Nov_04_1511,2-25_cond_decay_EYE-try,2021.2.3,120.0197648768356,
left,1.0,0.75,1,0,0,0,0,0,0,0,0,1,9,19,3,,,,,,,,,,,,,,,5s,270.163393734023,271.1634714381071,271.1551396830473,None,272.15506786305923,276.85513996204827,272.15506786305923,276.85513996204827,276.84675018000416,None,276.84675018000416,None,space,0.636051869019866,276.84675018000416,None,4.6932,277.61356266005896,None,,,,,,,DEC018,001,2022_Nov_04_1511,2-25_cond_decay_EYE-try,2021.2.3,120.0197648768356,
,,,,0,0,0,0,0,0,0,0,,,,,,,,,,,,,,,,,,,,,,,,,,,,,,,,,,,,,,,,,,,,,DEC018,001,2022_Nov_04_1511,2-25_cond_decay_EYE-try,2021.2.3,120.0197648768356,
left,1.0,0.75,1,0,0,0,0,1,0,1,0,0,0,0,8,,,,,,,,,278.5051604100736,None,278.5051604100736,None,278.5051604100736,None,10s,280.5134825160494,281.513486280106,281.49683142104186,None,282.49684421310667,285.08851605304517,282.49684421310667,285.08851605304517,285.08851605304517,None,285.08851605304517,None,space,0.6192737059900537,285.08851605304517,None,2.5874,285.8386226570001,None,,,,,,,DEC018,001,2022_Nov_04_1511,2-25_cond_decay_EYE-try,2021.2.3,120.0197648768356,
right,1.0,0.75,0,0,0,0,0,1,0,1,0,0,1,1,0,,,,,,,,,,,,,,,10s,286.896865178016,287.89696047105826,287.88856336206663,None,288.88855561905075,297.005302692065,288.88855561905075,297.005302692065,297.005302692065,None,297.005302692065,None,space,0.41734642698429525,297.005302692065,None,8.1167,297.55413332604803,None,,,,,,,DEC018,001,2022_Nov_04_1511,2-25_cond_decay_EYE-try,2021.2.3,120.0197648768356,
left,0.75,1.0,0,0,0,0,0,1,0,1,0,0,2,2,6,,,,,,,,,,,,,,,10s,298.6137608271092,299.61377269006334,299.60533983202185,None,300.60534423205536,309.62219666608144,300.60534423205536,309.62219666608144,309.62219666608144,None,309.62219666608144,None,space,0.3743925460148603,309.62219666608144,None,9.0149,310.12212797102984,None,,,,,,,DEC018,001,2022_Nov_04_1511,2-25_cond_decay_EYE-try,2021.2.3,120.0197648768356,
right,1.0,0.75,0,0,0,0,0,1,0,1,0,0,3,3,1,,,,,,,,,,,,,,,10s,311.1888927350519,312.18886395101435,312.1804975110572,None,313.1805345941102,314.7971763830865,313.1805345941102,314.7971763830865,314.7971763830865,None,314.7971763830865,None,space,0.5445826700888574,314.7971763830865,None,1.6156,315.47229639207944,None,,,,,,,DEC018,001,2022_Nov_04_1511,2-25_cond_decay_EYE-try,2021.2.3,120.0197648768356,
right,0.75,1.0,1,0,0,0,0,1,0,1,0,0,4,4,3,,,,,,,,,,,,,,,10s,316.5222799020121,317.52229691506363,317.51383249706123,None,318.51397789805196,324.3723902920028,318.51397789805196,324.3723902920028,324.3723902920028,None,324.3723902920028,None,space,0.477644301019609,324.3723902920028,None,5.8468,324.98072225099895,None,,,,,,,DEC018,001,2022_Nov_04_1511,2-25_cond_decay_EYE-try,2021.2.3,120.0197648768356,
right,1.0,0.75,0,0,0,0,0,1,0,1,0,0,5,5,4,,,,,,,,,,,,,,,10s,326.04608226008713,327.04735680203885,327.0306284140097,None,328.0307430770481,336.4890842260793,328.0307430770481,336.4890842260793,336.480734358076,None,336.480734358076,None,space,0.4506698640761897,336.480734358076,None,8.4522,337.05573776201345,None,,,,,,,DEC018,001,2022_Nov_04_1511,2-25_cond_decay_EYE-try,2021.2.3,120.0197648768356,
right,1.0,0.75,0,0,0,0,0,1,0,1,0,0,6,6,2,,,,,,,,,,,,,,,10s,338.1141940311063,339.1141647900222,339.10585906903725,None,340.10585670301225,347.5725980150746,340.10585670301225,347.5725980150746,347.5725980150746,None,347.5725980150746,None,space,0.4004939600126818,347.5725980150746,None,7.4574,348.1045971730491,None,,,,,,,DEC018,001,2022_Nov_04_1511,2-25_cond_decay_EYE-try,2021.2.3,120.0197648768356,
left,0.75,1.0,0,0,0,0,0,1,0,1,0,0,7,7,7,,,,,,,,,,,,,,,10s,349.16428735200316,350.16422681801487,350.1559915790567,None,351.1642247940181,351.5892453540582,351.1642247940181,351.5892453540582,351.58085930603556,None,351.58085930603556,None,space,0.5924448459409177,351.58085930603556,None,0.4236,352.3046922570793,None,,,,,,,DEC018,001,2022_Nov_04_1511,2-25_cond_decay_EYE-try,2021.2.3,120.0197648768356,
left,1.0,0.75,1,0,0,0,0,1,0,1,0,0,8,8,9,,,,,,,,,,,,,,,10s,353.35602126503363,354.3560624830425,354.34759201901034,None,355.3476884190459,362.3393538860837,355.3476884190459,362.3393538860837,362.3393538860837,None,362.3393538860837,None,space,0.5912098360713571,362.3393538860837,None,6.992,363.0560726959957,None,,,,,,,DEC018,001,2022_Nov_04_1511,2-25_cond_decay_EYE-try,2021.2.3,120.0197648768356,
left,0.75,1.0,0,0,0,0,0,1,0,1,0,0,9,9,5,,,,,,,,,,,,,,,10s,364.1214694060618,365.1227741930634,365.10600514907856,None,366.1060693410691,367.37283417209983,366.1060693410691,367.37283417209983,367.37283417209983,None,367.37283417209983,None,space,0.6276943889679387,367.37283417209983,None,1.262,368.1311738080112,None,,,,,,,DEC018,001,2022_Nov_04_1511,2-25_cond_decay_EYE-try,2021.2.3,120.0197648768356,
left,0.75,1.0,0,0,0,0,0,1,0,1,0,1,0,10,5,,,,,,,,,,,,,,,10s,369.19784601405263,370.1978442260297,370.172791443998,None,371.1729330540402,374.11450274207164,371.1729330540402,374.11450274207164,374.11450274207164,None,374.11450274207164,None,space,0.6612663659034297,374.11450274207164,None,2.9276,374.906214005081,None,,,,,,,DEC018,001,2022_Nov_04_1511,2-25_cond_decay_EYE-try,2021.2.3,120.0197648768356,
right,1.0,0.75,0,0,0,0,0,1,0,1,0,1,1,11,2,,,,,,,,,,,,,,,10s,375.96447375102434,376.9645064880606,376.94780213502236,None,377.94786540803034,387.26463154610246,377.94786540803034,387.26463154610246,387.26463154610246,None,387.26463154610246,None,space,0.6660321770468727,387.26463154610246,None,9.3171,388.05626852309797,None,,,,,,,DEC018,001,2022_Nov_04_1511,2-25_cond_decay_EYE-try,2021.2.3,120.0197648768356,
left,1.0,0.75,1,0,0,0,0,1,0,1,0,1,2,12,9,,,,,,,,,,,,,,,10s,389.1230173720978,390.12303891102783,390.1146519210888,None,391.1146251100581,398.9647047230974,391.1146251100581,398.9647047230974,398.956374334055,None,398.956374334055,None,space,0.7029500590870157,398.956374334055,None,7.8466,399.78981750505045,None,,,,,,,DEC018,001,2022_Nov_04_1511,2-25_cond_decay_EYE-try,2021.2.3,120.0197648768356,
left,0.75,1.0,0,0,0,0,0,1,0,1,0,1,3,13,7,,,,,,,,,,,,,,,10s,400.8468639970524,401.8481555200415,401.83143658109475,None,402.83140379202086,405.6564648960484,402.83140379202086,405.6564648960484,405.6564648960484,None,405.6564648960484,None,space,0.4910951539641246,405.6564648960484,None,2.8205,406.2802564870799,None,,,,,,,DEC018,001,2022_Nov_04_1511,2-25_cond_decay_EYE-try,2021.2.3,120.0197648768356,
right,0.75,1.0,1,0,0,0,0,1,0,1,0,1,4,14,3,,,,,,,,,,,,,,,10s,407.33154534501955,408.3315538010793,408.314802694018,None,409.3148128290195,418.37326083600055,409.3148128290195,418.37326083600055,418.37326083600055,None,418.37326083600055,None,space,0.45319153100717813,418.37326083600055,None,9.0512,418.95668034104165,None,,,,,,,DEC018,001,2022_Nov_04_1511,2-25_cond_decay_EYE-try,2021.2.3,120.0197648768356,
right,1.0,0.75,0,0,0,0,0,1,0,1,0,1,5,15,1,,,,,,,,,,,,,,,10s,420.0149916310329,421.01500573800877,420.99002274207305,None,421.9970619060332,423.39830267999787,421.9970619060332,423.39830267999787,423.38994238502346,None,423.38994238502346,None,space,0.5328253170009702,423.38994238502346,None,1.397,424.04830402100924,None,,,,,,,DEC018,001,2022_Nov_04_1511,2-25_cond_decay_EYE-try,2021.2.3,120.0197648768356,
left,0.75,1.0,0,0,0,0,0,1,0,1,0,1,6,16,8,,,,,,,,,,,,,,,10s,425.1150962560205,426.1150638520485,426.10666879301425,None,427.1066618550103,434.8651212390978,427.1066618550103,434.8651212390978,434.8567508039996,None,434.8567508039996,None,space,0.42764935304876417,434.8567508039996,None,7.7514,435.4151635330636,None,,,,,,,DEC018,001,2022_Nov_04_1511,2-25_cond_decay_EYE-try,2021.2.3,120.0197648768356,
right,1.0,0.75,0,0,0,0,0,1,0,1,0,1,7,17,4,,,,,,,,,,,,,,,10s,436.4651195630431,437.46509428007994,437.45680175803136,None,438.4568770080805,447.44853962608613,438.4568770080805,447.44853962608613,447.4404738070443,None,447.4404738070443,None,space,0.5691718979505822,447.4404738070443,None,8.9834,448.1403824420413,None,,,,,,,DEC018,001,2022_Nov_04_1511,2-25_cond_decay_EYE-try,2021.2.3,120.0197648768356,
left,0.75,1.0,0,0,0,0,0,1,0,1,0,1,8,18,6,,,,,,,,,,,,,,,10s,449.1986658470705,450.19863234704826,450.1902803380508,None,451.18192739703227,452.3152904449962,451.18192739703227,452.3152904449962,452.3152904449962,None,452.3152904449962,None,space,0.8505498989252374,452.3152904449962,None,1.1331,453.2974115910474,None,,,,,,,DEC018,001,2022_Nov_04_1511,2-25_cond_decay_EYE-try,2021.2.3,120.0197648768356,
right,1.0,0.75,0,0,0,0,0,1,0,1,0,1,9,19,0,,,,,,,,,,,,,,,10s,454.35703137202654,455.35702877806034,455.3486360630486,None,456.3570549970027,458.99033684807364,456.3570549970027,458.99033684807364,458.96533997007646,None,458.96533997007646,None,space,0.6360076629789546,458.96533997007646,None,2.6273,459.73078015004285,None,,,,,,,DEC018,001,2022_Nov_04_1511,2-25_cond_decay_EYE-try,2021.2.3,120.0197648768356,
,,,,0,0,0,0,1,0,1,0,,,,,,,,,,,,,,,,,,,,,,,,,,,,,,,,,,,,,,,,,,,,,DEC018,001,2022_Nov_04_1511,2-25_cond_decay_EYE-try,2021.2.3,120.0197648768356,
left,0.75,1.0,0,0,0,0,0,2,0,2,0,0,0,0,1,,,,,,,,,460.62377444806043,None,460.62377444806043,None,460.62377444806043,None,3s,463.5821410580538,464.5820762380026,464.573763168999,None,465.5737559950212,468.3154126650188,465.5737559950212,468.3154126650188,468.3154126650188,None,468.3154126650188,None,space,0.3693755610147491,468.3154126650188,None,2.74,468.8155254430603,None,,,,,,,DEC018,001,2022_Nov_04_1511,2-25_cond_decay_EYE-try,2021.2.3,120.0197648768356,
right,1.0,0.75,0,0,0,0,0,2,0,2,0,0,1,1,4,,,,,,,,,,,,,,,3s,469.86543980706483,470.86556271405425,470.8571197880665,None,471.8572235570755,473.4237910610391,471.8572235570755,473.4237910610391,473.41555697110016,None,473.41555697110016,None,space,0.4994500760221854,473.41555697110016,None,1.5642,474.04762347310316,None,,,,,,,DEC018,001,2022_Nov_04_1511,2-25_cond_decay_EYE-try,2021.2.3,120.0197648768356,
left,0.75,1.0,0,0,0,0,0,2,0,2,0,0,2,2,8,,,,,,,,,,,,,,,3s,475.10726694203913,476.10725627001375,476.09885703609325,None,477.0989277201006,478.7488876560237,477.0989277201006,478.7488876560237,478.7405336830998,None,478.7405336830998,None,space,0.45291010302025825,478.7405336830998,None,1.644,479.3239589810837,None,,,,,,,DEC018,001,2022_Nov_04_1511,2-25_cond_decay_EYE-try,2021.2.3,120.0197648768356,
right,0.75,1.0,1,0,0,0,0,2,0,2,0,0,3,3,2,,,,,,,,,,,,,,,3s,480.38222475303337,481.3822448661085,481.37389662407804,None,482.3738838280551,484.2572708640946,482.3738838280551,484.2572708640946,484.2572708640946,None,484.2572708640946,None,space,0.5276023419573903,484.2572708640946,None,1.88,484.9157705720281,None,,,,,,,DEC018,001,2022_Nov_04_1511,2-25_cond_decay_EYE-try,2021.2.3,120.0197648768356,
left,0.75,1.0,0,0,0,0,0,2,0,2,0,0,4,4,0,,,,,,,,,,,,,,,3s,485.9740417790599,486.9740205790149,486.965643981006,None,487.965678157052,489.3406314450549,487.965678157052,489.3406314450549,489.33233691204805,None,489.33233691204805,None,space,0.535971860983409,489.33233691204805,None,1.3717,489.9990759770153,None,,,,,,,DEC018,001,2022_Nov_04_1511,2-25_cond_decay_EYE-try,2021.2.3,120.0197648768356,
right,1.0,0.75,0,0,0,0,0,2,0,2,0,0,5,5,7,,,,,,,,,,,,,,,3s,491.0490987630328,492.0490831111092,492.04073329502717,None,493.04078482906334,494.94069979304913,493.04078482906334,494.94069979304913,494.94069979304913,None,494.94069979304913,None,space,0.433888160972856,494.94069979304913,None,1.9004,495.4990581750171,None,,,,,,,DEC018,001,2022_Nov_04_1511,2-25_cond_decay_EYE-try,2021.2.3,120.0197648768356,
right,1.0,0.75,0,0,0,0,0,2,0,2,0,0,6,6,5,,,,,,,,,,,,,,,3s,496.565840226016,497.56584008806385,497.5574808620149,None,498.55741326801945,500.0408242261037,498.55741326801945,500.0408242261037,500.03241246705875,None,500.03241246705875,None,space,0.4195377790601924,500.03241246705875,None,1.4767,500.5825142880203,None,,,,,,,DEC018,001,2022_Nov_04_1511,2-25_cond_decay_EYE-try,2021.2.3,120.0197648768356,
left,0.75,1.0,0,0,0,0,0,2,0,2,0,0,7,7,9,,,,,,,,,,,,,,,3s,501.64078976307064,502.64079275506083,502.63243675709236,None,503.6408553160727,506.61583133309614,503.6408553160727,506.61583133309614,506.61583133309614,None,506.61583133309614,None,space,0.4443594430340454,506.61583133309614,None,2.9646,507.1909398500575,None,,,,,,,DEC018,001,2022_Nov_04_1511,2-25_cond_decay_EYE-try,2021.2.3,120.0197648768356,
left,1.0,0.75,1,0,0,0,0,2,0,2,0,0,8,8,6,,,,,,,,,,,,,,,3s,508.23962513403967,509.2409181140829,509.2242039080011,None,510.22421615209896,512.1409515840933,510.22421615209896,512.1409515840933,512.1409515840933,None,512.1409515840933,None,space,0.4942349150078371,512.1409515840933,None,1.9122,512.7659887610935,None,,,,,,,DEC018,001,2022_Nov_04_1511,2-25_cond_decay_EYE-try,2021.2.3,120.0197648768356,
right,1.0,0.75,0,0,0,0,0,2,0,2,0,0,9,9,3,,,,,,,,,,,,,,,3s,513.8243372000288,514.8242885530926,514.8076023830799,None,515.8075930550694,516.024279245059,515.8075930550694,516.024279245059,516.024279245059,None,516.024279245059,None,None,,516.024279245059,None,0.2116,517.149335587048,None,,,,,,,DEC018,001,2022_Nov_04_1511,2-25_cond_decay_EYE-try,2021.2.3,120.0197648768356,
right,1.0,0.75,0,0,0,0,0,2,0,2,0,1,0,10,5,,,,,,,,,,,,,,,3s,518.1910228510387,519.1910347720841,519.1826465000631,None,520.1993528060848,521.9076739921002,520.1993528060848,521.9076739921002,521.8827139670029,None,521.8827139670029,None,space,0.4494685670360923,521.8827139670029,None,1.7032,522.4661549660377,None,,,,,,,DEC018,001,2022_Nov_04_1511,2-25_cond_decay_EYE-try,2021.2.3,120.0197648768356,
left,0.75,1.0,0,0,0,0,0,2,0,2,0,1,1,11,1,,,,,,,,,,,,,,,3s,523.5160609030863,524.5244237650186,524.5160270180786,None,525.5076772510074,525.966038325103,525.5076772510074,525.966038325103,525.966038325103,None,525.966038325103,None,space,0.4192919449415058,525.966038325103,None,0.4579,526.5161039440427,None,,,,,,,DEC018,001,2022_Nov_04_1511,2-25_cond_decay_EYE-try,2021.2.3,120.0197648768356,
right,1.0,0.75,0,0,0,0,0,2,0,2,0,1,2,12,3,,,,,,,,,,,,,,,3s,527.5911260111025,528.5911147230072,528.5660843410296,None,529.5660826640669,530.849438610021,529.5660826640669,530.849438610021,530.849438610021,None,530.849438610021,None,space,0.31935628107748926,530.849438610021,None,1.2803,531.2995605020551,None,,,,,,,DEC018,001,2022_Nov_04_1511,2-25_cond_decay_EYE-try,2021.2.3,120.0197648768356,
left,0.75,1.0,0,0,0,0,0,2,0,2,0,1,3,13,9,,,,,,,,,,,,,,,3s,532.3578546270728,533.3578439929988,533.349456325057,None,534.349485716084,535.6661761309952,534.349485716084,535.6661761309952,535.6577803289983,None,535.6577803289983,None,space,0.5196533020352945,535.6577803289983,None,1.3149,536.3078821290983,None,,,,,,,DEC018,001,2022_Nov_04_1511,2-25_cond_decay_EYE-try,2021.2.3,120.0197648768356,
left,0.75,1.0,0,0,0,0,0,2,0,2,0,1,4,14,0,,,,,,,,,,,,,,,3s,537.366237128037,538.3661815141095,538.3579084360972,None,539.3661502730101,540.1412374450592,539.3661502730101,540.1412374450592,540.1245065940311,None,540.1245065940311,None,space,0.35147649399004877,540.1245065940311,None,0.7721,540.6067174890777,None,,,,,,,DEC018,001,2022_Nov_04_1511,2-25_cond_decay_EYE-try,2021.2.3,120.0197648768356,
right,1.0,0.75,0,0,0,0,0,2,0,2,0,1,5,15,7,,,,,,,,,,,,,,,3s,541.657851878088,542.6578609860735,542.6495140410261,None,543.649524240056,544.8329018560471,543.649524240056,544.8329018560471,544.8245648640441,None,544.8245648640441,None,space,0.4744518130319193,544.8245648640441,None,1.1796,545.4320896870922,None,,,,,,,DEC018,001,2022_Nov_04_1511,2-25_cond_decay_EYE-try,2021.2.3,120.0197648768356,
left,1.0,0.75,1,0,0,0,0,2,0,2,0,1,6,16,6,,,,,,,,,,,,,,,3s,546.4996631731046,547.4996495590312,547.4912435450824,None,548.4912543999963,550.2329387220088,548.4912543999963,550.2329387220088,550.2246109039988,None,550.2246109039988,None,space,0.39454937004484236,550.2246109039988,None,1.7355,550.7580308309989,None,,,,,,,DEC018,001,2022_Nov_04_1511,2-25_cond_decay_EYE-try,2021.2.3,120.0197648768356,
left,0.75,1.0,0,0,0,0,0,2,0,2,0,1,7,17,8,,,,,,,,,,,,,,,3s,551.8234119541012,552.8246957689989,552.8079757300438,None,553.8079686569981,556.0997664229944,553.8079686569981,556.0997664229944,556.0997664229944,None,556.0997664229944,None,space,0.3361054859124124,556.0997664229944,None,2.2857,556.5665008530486,None,,,,,,,DEC018,001,2022_Nov_04_1511,2-25_cond_decay_EYE-try,2021.2.3,120.0197648768356,
right,0.75,1.0,1,0,0,0,0,2,0,2,0,1,8,18,2,,,,,,,,,,,,,,,3s,557.6247590690618,558.6248246619944,558.6080423690146,None,559.6080913020996,561.4664063160308,559.6080913020996,561.4664063160308,561.4664063160308,None,561.4664063160308,None,space,0.5109953819774091,561.4664063160308,None,1.8516,562.1081263590604,None,,,,,,,DEC018,001,2022_Nov_04_1511,2-25_cond_decay_EYE-try,2021.2.3,120.0197648768356,
right,1.0,0.75,0,0,0,0,0,2,0,2,0,1,9,19,4,,,,,,,,,,,,,,,3s,563.1665096980287,564.1665072640171,564.1580896090018,None,565.1580885410076,565.4581941980869,565.1580885410076,565.4581941980869,565.4498472020496,None,565.4498472020496,None,None,,565.4498472020496,None,0.2874,566.5748080600752,None,,,,,,,DEC018,001,2022_Nov_04_1511,2-25_cond_decay_EYE-try,2021.2.3,120.0197648768356,
,,,,0,0,0,0,2,0,2,0,,,,,,,,,,,,,,,,,,,,,,,,,,,,,,,,,,,,,,,,,,,,,DEC018,001,2022_Nov_04_1511,2-25_cond_decay_EYE-try,2021.2.3,120.0197648768356,
left,0.75,1.0,0,0,0,0,0,3,0,3,0,0,0,0,2,,,,,,,,,567.4665780970827,None,567.4665780970827,None,567.4665780970827,None,1s,569.0997889071004,570.099901881069,570.0831613150658,None,571.0831531950971,571.9332745580468,571.0831531950971,571.9332745580468,571.9332745580468,None,571.9332745580468,None,space,0.42565376998391,571.9332745580468,None,0.8455,572.4916007830761,None,,,,,,,DEC018,001,2022_Nov_04_1511,2-25_cond_decay_EYE-try,2021.2.3,120.0197648768356,
right,1.0,0.75,0,0,0,0,0,3,0,3,0,0,1,1,8,,,,,,,,,,,,,,,1s,573.5498896400677,574.5499443180161,574.5415518190712,None,575.5415621940047,575.9415692980401,575.5415621940047,575.9415692980401,575.9332266150741,None,575.9332266150741,None,space,0.4277688169386238,575.9332266150741,None,0.3963,576.4917135360884,None,,,,,,,DEC018,001,2022_Nov_04_1511,2-25_cond_decay_EYE-try,2021.2.3,120.0197648768356,
right,1.0,0.75,0,0,0,0,0,3,0,3,0,0,2,2,7,,,,,,,,,,,,,,,1s,577.5416283690138,578.5416505120229,578.5332422020147,None,579.5332451669965,579.7999232810689,579.5332451669965,579.7999232810689,579.7915633490775,None,579.7915633490775,None,space,0.369450920028612,579.7915633490775,None,0.263,580.2916641730117,None,,,,,,,DEC018,001,2022_Nov_04_1511,2-25_cond_decay_EYE-try,2021.2.3,120.0197648768356,
right,0.75,1.0,1,0,0,0,0,3,0,3,0,0,3,3,9,,,,,,,,,,,,,,,1s,581.3417234390508,582.3416827870533,582.3333114010748,None,583.3332893130137,584.0999575800961,583.3332893130137,584.0999575800961,584.0916550600668,None,584.0916550600668,None,space,0.4339929969282821,584.0916550600668,None,0.7607,584.6570990910986,None,,,,,,,DEC018,001,2022_Nov_04_1511,2-25_cond_decay_EYE-try,2021.2.3,120.0197648768356,
left,0.75,1.0,0,0,0,0,0,3,0,3,0,0,4,4,5,,,,,,,,,,,,,,,1s,585.7167590510799,586.7167327100178,586.6999805730302,None,587.7000718211057,588.000057131052,587.7000718211057,588.000057131052,588.000057131052,None,588.000057131052,None,space,0.39449017390143126,588.000057131052,None,0.2853,588.5251716200728,None,,,,,,,DEC018,001,2022_Nov_04_1511,2-25_cond_decay_EYE-try,2021.2.3,120.0197648768356,
left,1.0,0.75,1,0,0,0,0,3,0,3,0,0,5,5,3,,,,,,,,,,,,,,,1s,589.5750513050007,590.5750921070576,590.5750921070576,None,591.5667150680674,592.0333741710056,591.5667150680674,592.0333741710056,592.0333741710056,None,592.0333741710056,None,space,0.3608950619818643,592.0333741710056,None,0.4674,592.5322493440472,None,,,,,,,DEC018,001,2022_Nov_04_1511,2-25_cond_decay_EYE-try,2021.2.3,120.0197648768356,
left,0.75,1.0,0,0,0,0,0,3,0,3,0,0,6,6,0,,,,,,,,,,,,,,,1s,593.5751919239992,594.5750677570468,594.5667862800183,None,595.5667959220009,596.1417678201105,595.5667959220009,596.1417678201105,596.1417678201105,None,596.1417678201105,None,space,0.3339864189038053,596.1417678201105,None,0.5587,596.6085757790133,None,,,,,,,DEC018,001,2022_Nov_04_1511,2-25_cond_decay_EYE-try,2021.2.3,120.0197648768356,
left,0.75,1.0,0,0,0,0,0,3,0,3,0,0,7,7,6,,,,,,,,,,,,,,,1s,597.6655854830751,598.66680778109,598.6501244660467,None,599.6584717941005,599.8835071750218,599.6584717941005,599.8835071750218,599.8835071750218,None,599.8835071750218,None,space,0.3777942919405177,599.8835071750218,None,0.2174,600.3918846850283,None,,,,,,,DEC018,001,2022_Nov_04_1511,2-25_cond_decay_EYE-try,2021.2.3,120.0197648768356,
left,0.75,1.0,0,0,0,0,0,3,0,3,0,0,8,8,4,,,,,,,,,,,,,,,1s,601.448927880032,602.450217479025,602.4334974650992,None,603.4419060290093,603.8418228750816,603.4419060290093,603.8418228750816,603.8334976910846,None,603.8334976910846,None,space,0.3277442690450698,603.8334976910846,None,0.3931,604.2918839980848,None,,,,,,,DEC018,001,2022_Nov_04_1511,2-25_cond_decay_EYE-try,2021.2.3,120.0197648768356,
right,1.0,0.75,0,0,0,0,0,3,0,3,0,0,9,9,1,,,,,,,,,,,,,,,1s,605.3501803230029,606.3502810420468,606.341878582025,None,607.3419101060135,608.3086178640369,607.3419101060135,608.3086178640369,608.3002540960442,None,608.3002540960442,None,space,0.3527047580573708,608.3002540960442,None,0.9607,608.7837322780397,None,,,,,,,DEC018,001,2022_Nov_04_1511,2-25_cond_decay_EYE-try,2021.2.3,120.0197648768356,
left,0.75,1.0,0,0,0,0,0,3,0,3,0,1,0,10,5,,,,,,,,,,,,,,,1s,609.8419698380167,610.8419678640785,610.833618514007,None,611.8336312770844,612.175324046053,611.8336312770844,612.175324046053,612.175324046053,None,612.175324046053,None,space,0.3859749810071662,612.175324046053,None,0.3424,612.6920803351095,None,,,,,,,DEC018,001,2022_Nov_04_1511,2-25_cond_decay_EYE-try,2021.2.3,120.0197648768356,
left,1.0,0.75,1,0,0,0,0,3,0,3,0,1,1,11,3,,,,,,,,,,,,,,,1s,613.7490541690495,614.7503566710511,614.7336481240345,None,615.7336902749958,616.2336927350843,615.7336902749958,616.2336927350843,616.2336927350843,None,616.2336927350843,None,space,0.36935539403930306,616.2336927350843,None,0.4929,616.7338164420798,None,,,,,,,DEC018,001,2022_Nov_04_1511,2-25_cond_decay_EYE-try,2021.2.3,120.0197648768356,
left,0.75,1.0,0,0,0,0,0,3,0,3,0,1,2,12,0,,,,,,,,,,,,,,,1s,617.783689069096,618.7836655500578,618.7753409630386,None,619.7753915750654,620.6919999740785,619.7753915750654,620.6919999740785,620.6836774121039,None,620.6836774121039,None,space,0.39225876796990633,620.6836774121039,None,0.9105,621.2087460050825,None,,,,,,,DEC018,001,2022_Nov_04_1511,2-25_cond_decay_EYE-try,2021.2.3,120.0197648768356,
left,0.75,1.0,0,0,0,0,0,3,0,3,0,1,3,13,6,,,,,,,,,,,,,,,1s,622.2587396251038,623.2587811730336,623.250428397092,None,624.2504272160586,624.4670593990013,624.2504272160586,624.4670593990013,624.4587031960255,None,624.4587031960255,None,space,0.45898707397282124,624.4587031960255,None,0.2112,625.0492308870889,None,,,,,,,DEC018,001,2022_Nov_04_1511,2-25_cond_decay_EYE-try,2021.2.3,120.0197648768356,
right,1.0,0.75,0,0,0,0,0,3,0,3,0,1,4,14,1,,,,,,,,,,,,,,,1s,626.1087556880666,627.1088323770091,627.1004096220713,None,628.1004857990192,628.8170908340253,628.1004857990192,628.8170908340253,628.8170908340253,None,628.8170908340253,None,space,0.7444151119561866,628.8170908340253,None,0.7112,629.6922028861009,None,,,,,,,DEC018,001,2022_Nov_04_1511,2-25_cond_decay_EYE-try,2021.2.3,120.0197648768356,
right,1.0,0.75,0,0,0,0,0,3,0,3,0,1,5,15,8,,,,,,,,,,,,,,,1s,630.7421947860857,631.7588551040972,631.7338426850038,None,632.7338326210156,633.7338821670273,632.7338326210156,633.7338821670273,633.7338821670273,None,633.7338821670273,None,space,0.3410775010706857,633.7338821670273,None,0.9993,634.2076112080831,None,,,,,,,DEC018,001,2022_Nov_04_1511,2-25_cond_decay_EYE-try,2021.2.3,120.0197648768356,
right,0.75,1.0,1,0,0,0,0,3,0,3,0,1,6,16,9,,,,,,,,,,,,,,,1s,635.2588631990366,636.2589047350921,636.2504782261094,None,637.2505065230653,637.5671903300099,637.2505065230653,637.5671903300099,637.5589337460697,None,637.5589337460697,None,space,0.6942679999629036,637.5589337460697,None,0.3119,638.3839349510381,None,,,,,,,DEC018,001,2022_Nov_04_1511,2-25_cond_decay_EYE-try,2021.2.3,120.0197648768356,
right,1.0,0.75,0,0,0,0,0,3,0,3,0,1,7,17,7,,,,,,,,,,,,,,,1s,639.4339852530975,640.4339184830897,640.4255452270154,None,641.4255752110621,642.3089256400708,641.4255752110621,642.3089256400708,642.3089256400708,None,642.3089256400708,None,space,0.5192870399914682,642.3089256400708,None,0.8795,642.9589832189959,None,,,,,,,DEC018,001,2022_Nov_04_1511,2-25_cond_decay_EYE-try,2021.2.3,120.0197648768356,
right,1.0,0.75,0,0,0,0,0,3,0,3,0,1,8,18,2,,,,,,,,,,,,,,,1s,644.0089274450438,645.0090263320599,645.0007052490255,None,646.0006490070373,646.917277651024,646.0006490070373,646.917277651024,646.917277651024,None,646.917277651024,None,space,0.35067621001508087,646.917277651024,None,0.9149,647.4007309341105,None,,,,,,,DEC018,001,2022_Nov_04_1511,2-25_cond_decay_EYE-try,2021.2.3,120.0197648768356,
left,0.75,1.0,0,0,0,0,0,3,0,3,0,1,9,19,4,,,,,,,,,,,,,,,1s,648.4577817120589,649.4590409180382,649.4423396911006,None,650.450754415011,651.2173679770203,650.450754415011,651.2173679770203,651.2173679770203,None,651.2173679770203,None,space,0.3943975870497525,651.2173679770203,None,0.7579,651.7424405370839,None,,,,,,,DEC018,001,2022_Nov_04_1511,2-25_cond_decay_EYE-try,2021.2.3,120.0197648768356,
,,,,0,0,0,0,3,0,3,0,,,,,,,,,,,,,,,,,,,,,,,,,,,,,,,,,,,,,,,,,,,,,DEC018,001,2022_Nov_04_1511,2-25_cond_decay_EYE-try,2021.2.3,120.0197648768356,
,,,,0,0,0,0,,,,,,,,,,,,,,,,,,,,,,,,,,,,,,,,,,,,,,,,,,,652.6340079520596,None,652.6340079520596,None,652.6340079520596,None,DEC018,001,2022_Nov_04_1511,2-25_cond_decay_EYE-try,2021.2.3,120.0197648768356,
right,0.75,1.0,1,1,0,1,0,0,0,0,0,0,0,0,9,,,,,,,,,657.6340934881009,None,657.6340934881009,None,657.6340934881009,None,5s,674.9176762960851,675.9176742510172,675.9093469190411,None,676.9092668410158,680.9509777330095,676.9092668410158,680.9509777330095,680.9426293470897,None,680.9426293470897,None,space,0.4695477179484442,680.9426293470897,None,4.0402,681.5427008580882,None,,,,,,,DEC018,001,2022_Nov_04_1511,2-25_cond_decay_EYE-try,2021.2.3,120.0197648768356,
left,0.75,1.0,0,1,0,1,0,0,0,0,0,0,1,1,2,,,,,,,,,,,,,,,5s,682.5927737440215,683.5926664200379,683.5844244470354,None,684.5844068340957,685.2593562480761,684.5844068340957,685.2593562480761,685.2509991650004,None,685.2509991650004,None,space,0.6411315349396318,685.2509991650004,None,0.672,686.0176735100104,None,,,,,,,DEC018,001,2022_Nov_04_1511,2-25_cond_decay_EYE-try,2021.2.3,120.0197648768356,
left,1.0,0.75,1,1,0,1,0,0,0,0,0,0,2,2,5,,,,,,,,,,,,,,,5s,687.0761157220695,688.0761310410453,688.067780500045,None,689.0677167860558,689.226031466038,689.0677167860558,689.226031466038,689.2177217020653,None,689.2177217020653,None,space,0.4422920049401,689.2177217020653,None,0.1538,689.791527352063,None,,,,,,,DEC018,001,2022_Nov_04_1511,2-25_cond_decay_EYE-try,2021.2.3,120.0197648768356,
right,1.0,0.75,0,1,0,1,0,0,0,0,0,0,3,3,7,,,,,,,,,,,,,,,5s,690.8511649530847,691.8511378921103,691.8428127641091,None,692.8427786510438,697.3678268730873,692.8427786510438,697.3678268730873,697.3594924850622,None,697.3594924850622,None,space,0.377658573910594,697.3594924850622,None,4.5197,697.8679595610593,None,,,,,,,DEC018,001,2022_Nov_04_1511,2-25_cond_decay_EYE-try,2021.2.3,120.0197648768356,
right,1.0,0.75,0,1,0,1,0,0,0,0,0,0,4,4,3,,,,,,,,,,,,,,,5s,698.9263040740043,699.9262370940996,699.9179000930162,None,700.9178769590799,701.567925315001,700.9178769590799,701.567925315001,701.5595192400506,702.5596101540141,701.5595192400506,702.5596101540141,None,,701.5595192400506,702.5596101540141,0.6441,702.6929625320481,None,,,,,,,DEC018,001,2022_Nov_04_1511,2-25_cond_decay_EYE-try,2021.2.3,120.0197648768356,
right,1.0,0.75,0,1,0,1,0,0,0,0,0,0,5,5,6,,,,,,,,,,,,,,,5s,703.7499887670856,704.7512667860137,704.7345528500155,None,705.7345774590503,710.534707316081,705.7345774590503,710.534707316081,710.534707316081,None,710.534707316081,None,space,0.38265441404655576,710.534707316081,None,4.7998,711.0513784930808,None,,,,,,,DEC018,001,2022_Nov_04_1511,2-25_cond_decay_EYE-try,2021.2.3,120.0197648768356,
left,0.75,1.0,0,1,0,1,0,0,0,0,0,0,6,6,0,,,,,,,,,,,,,,,5s,712.1097236979986,713.109712026082,713.1012841160409,None,714.1013111920329,716.7930149320746,714.1013111920329,716.7930149320746,716.7847324809991,None,716.7847324809991,None,space,0.3610777109861374,716.7847324809991,None,2.6768,717.2764438110171,None,,,,,,,DEC018,001,2022_Nov_04_1511,2-25_cond_decay_EYE-try,2021.2.3,120.0197648768356,
right,0.75,1.0,1,1,0,1,0,0,0,0,0,0,7,7,1,,,,,,,,,,,,,,,5s,718.33471598709,719.334684753092,719.3263990000123,None,720.3263724429999,721.9848020930076,720.3263724429999,721.9848020930076,721.9764270670712,None,721.9764270670712,None,space,0.5944834689144045,721.9764270670712,None,1.6536,722.7015498620458,None,,,,,,,DEC018,001,2022_Nov_04_1511,2-25_cond_decay_EYE-try,2021.2.3,120.0197648768356,
left,0.75,1.0,0,1,0,1,0,0,0,0,0,0,8,8,4,,,,,,,,,,,,,,,5s,723.759824856068,724.759833676042,724.7514420170337,None,725.7514400350628,729.5348064251011,725.7514400350628,729.5348064251011,729.5265281361062,None,729.5265281361062,None,space,0.3410017709247768,729.5265281361062,None,3.7764,729.9931349040708,None,,,,,,,DEC018,001,2022_Nov_04_1511,2-25_cond_decay_EYE-try,2021.2.3,120.0197648768356,
right,1.0,0.75,0,1,0,1,0,0,0,0,0,0,9,9,8,,,,,,,,,,,,,,,5s,731.0598823520122,732.0598986620316,732.0515503580682,None,733.051480282098,735.5515148600098,733.051480282098,735.5515148600098,735.5515148600098,None,735.5515148600098,None,space,0.36115241202060133,735.5515148600098,None,2.4983,736.0432909880765,None,,,,,,,DEC018,001,2022_Nov_04_1511,2-25_cond_decay_EYE-try,2021.2.3,120.0197648768356,
right,1.0,0.75,0,1,0,1,0,0,0,0,0,1,0,10,8,,,,,,,,,,,,,,,5s,737.1003435699968,738.1016416531056,738.084892876097,None,739.0849190460285,743.2933150870958,739.0849190460285,743.2933150870958,743.2933150870958,None,743.2933150870958,None,space,0.33594938402529806,743.2933150870958,None,4.2028,743.7601081320317,None,,,,,,,DEC018,001,2022_Nov_04_1511,2-25_cond_decay_EYE-try,2021.2.3,120.0197648768356,
right,1.0,0.75,0,1,0,1,0,0,0,0,0,1,1,11,3,,,,,,,,,,,,,,,5s,744.8100138950394,745.8100424970035,745.7932991310954,None,746.7933395340806,749.4183710850775,746.7933395340806,749.4183710850775,749.4183710850775,None,749.4183710850775,None,space,0.44940412207506597,749.4183710850775,None,2.6237,749.993394794059,None,,,,,,,DEC018,001,2022_Nov_04_1511,2-25_cond_decay_EYE-try,2021.2.3,120.0197648768356,
right,1.0,0.75,0,1,0,1,0,0,0,0,0,1,2,12,7,,,,,,,,,,,,,,,5s,751.0516996810911,752.0517863940913,752.0434692720883,None,753.043409875012,757.1351064170012,753.043409875012,757.1351064170012,757.1351064170012,None,757.1351064170012,None,space,0.34947868809103966,757.1351064170012,None,4.0899,757.6101197540993,None,,,,,,,DEC018,001,2022_Nov_04_1511,2-25_cond_decay_EYE-try,2021.2.3,120.0197648768356,
left,1.0,0.75,1,1,0,1,0,0,0,0,0,1,3,13,5,,,,,,,,,,,,,,,5s,758.6768870220985,759.6768880700693,759.6601755490992,None,760.6684575320687,763.9351812960813,760.6684575320687,763.9351812960813,763.9268323800061,None,763.9268323800061,None,space,0.3864183039404452,763.9268323800061,None,3.2599,764.4436078920262,None,,,,,,,DEC018,001,2022_Nov_04_1511,2-25_cond_decay_EYE-try,2021.2.3,120.0197648768356,
left,0.75,1.0,0,1,0,1,0,0,0,0,0,1,4,14,0,,,,,,,,,,,,,,,5s,765.4935285870451,766.4935991450911,766.485210249084,None,767.4851836910238,769.060223335051,767.4851836910238,769.060223335051,769.060223335051,None,769.060223335051,None,space,0.5362492159474641,769.060223335051,None,1.5719,769.7269660769962,None,,,,,,,DEC018,001,2022_Nov_04_1511,2-25_cond_decay_EYE-try,2021.2.3,120.0197648768356,
right,0.75,1.0,1,1,0,1,0,0,0,0,0,1,5,15,1,,,,,,,,,,,,,,,5s,770.785335443099,771.7852414350491,771.7685773650883,None,772.7852578629972,774.901934841997,772.7852578629972,774.901934841997,774.8769856790313,None,774.8769856790313,None,space,0.5194737580604851,774.8769856790313,None,2.1057,775.5270639270311,None,,,,,,,DEC018,001,2022_Nov_04_1511,2-25_cond_decay_EYE-try,2021.2.3,120.0197648768356,
right,1.0,0.75,0,1,0,1,0,0,0,0,0,1,6,16,6,,,,,,,,,,,,,,,5s,776.5840870850952,777.5853777970187,777.5686738610966,None,778.568673774018,782.1603397910949,778.568673774018,782.1603397910949,782.1603397910949,None,782.1603397910949,None,space,0.3943482500035316,782.1603397910949,None,3.5883,782.6853888730984,None,,,,,,,DEC018,001,2022_Nov_04_1511,2-25_cond_decay_EYE-try,2021.2.3,120.0197648768356,
left,0.75,1.0,0,1,0,1,0,0,0,0,0,1,7,17,4,,,,,,,,,,,,,,,5s,783.7354167910526,784.7437622020952,784.7354288240895,None,785.727402279037,787.09376264608,785.727402279037,787.09376264608,787.09376264608,788.0938206880819,787.09376264608,788.0938206880819,None,,787.09376264608,788.0938206880819,1.3672,788.2271604971029,None,,,,,,,DEC018,001,2022_Nov_04_1511,2-25_cond_decay_EYE-try,2021.2.3,120.0197648768356,
left,0.75,1.0,0,1,0,1,0,0,0,0,0,1,8,18,9,,,,,,,,,,,,,,,5s,789.2770788510097,790.2771743200719,790.268765832996,None,791.2688088481082,794.4438832980813,791.2688088481082,794.4438832980813,794.4272588620661,None,794.4272588620661,None,space,0.3527219539973885,794.4272588620661,None,3.1604,794.9105019590352,None,,,,,,,DEC018,001,2022_Nov_04_1511,2-25_cond_decay_EYE-try,2021.2.3,120.0197648768356,
left,0.75,1.0,0,1,0,1,0,0,0,0,0,1,9,19,2,,,,,,,,,,,,,,,5s,795.9605435300618,796.9688272360945,796.9606068670982,None,797.9521879330277,802.0522548620356,797.9521879330277,802.0522548620356,802.0439907310065,None,802.0439907310065,None,space,0.3694470109185204,802.0439907310065,None,4.0971,802.5439764540642,None,,,,,,,DEC018,001,2022_Nov_04_1511,2-25_cond_decay_EYE-try,2021.2.3,120.0197648768356,
,,,,1,0,1,0,0,0,0,0,,,,,,,,,,,,,,,,,,,,,,,,,,,,,,,,,,,,,,,,,,,,,DEC018,001,2022_Nov_04_1511,2-25_cond_decay_EYE-try,2021.2.3,120.0197648768356,
right,1.0,0.75,0,1,0,1,0,1,0,1,0,0,0,0,6,,,,,,,,,803.4439980720636,None,803.4439980720636,None,803.4439980720636,None,1s,804.6105655410793,805.6106450411025,805.6022608740022,None,806.6022646890488,807.0106586050242,806.6022646890488,807.0106586050242,807.0106586050242,None,807.0106586050242,None,space,0.37753313092980534,807.0106586050242,None,0.4088,807.5190501440084,None,,,,,,,DEC018,001,2022_Nov_04_1511,2-25_cond_decay_EYE-try,2021.2.3,120.0197648768356,
left,1.0,0.75,1,1,0,1,0,1,0,1,0,0,1,1,5,,,,,,,,,,,,,,,1s,808.56903220003,809.5690721051069,809.5522929520812,None,810.5523792830063,810.7939887150424,810.5523792830063,810.7939887150424,810.7939887150424,None,810.7939887150424,None,space,0.39450544805731624,810.7939887150424,None,0.2423,811.3190844360506,None,,,,,,,DEC018,001,2022_Nov_04_1511,2-25_cond_decay_EYE-try,2021.2.3,120.0197648768356,
left,0.75,1.0,0,1,0,1,0,1,0,1,0,0,2,2,4,,,,,,,,,,,,,,,1s,812.3690435530152,813.3690623521106,813.3606865260517,None,814.3690563340206,814.7023615970975,814.3690563340206,814.7023615970975,814.6857353750383,None,814.6857353750383,None,space,0.3827575340401381,814.6857353750383,None,0.3292,815.1941770151025,None,,,,,,,DEC018,001,2022_Nov_04_1511,2-25_cond_decay_EYE-try,2021.2.3,120.0197648768356,
right,0.75,1.0,1,1,0,1,0,1,0,1,0,0,3,3,2,,,,,,,,,,,,,,,1s,816.2524207250681,817.2524525140179,817.2440717030549,None,818.2441114900867,818.9690836149966,818.2441114900867,818.9690836149966,818.9607468750328,None,818.9607468750328,None,space,0.35288228502031416,818.9607468750328,None,0.7226,819.4441887300927,None,,,,,,,DEC018,001,2022_Nov_04_1511,2-25_cond_decay_EYE-try,2021.2.3,120.0197648768356,
left,0.75,1.0,0,1,0,1,0,1,0,1,0,0,4,4,7,,,,,,,,,,,,,,,1s,820.5191884390078,821.5191896370379,821.5024131560931,None,822.502472058055,823.2607594541041,822.502472058055,823.2607594541041,823.2607594541041,None,823.2607594541041,None,space,0.34440887393429875,823.2607594541041,None,0.7497,823.7358414910268,None,,,,,,,DEC018,001,2022_Nov_04_1511,2-25_cond_decay_EYE-try,2021.2.3,120.0197648768356,
right,1.0,0.75,0,1,0,1,0,1,0,1,0,0,5,5,9,,,,,,,,,,,,,,,1s,824.7858807120938,825.7858865060844,825.777474586037,None,826.7774664110038,827.7358524420997,826.7774664110038,827.7358524420997,827.7274909120752,None,827.7274909120752,None,space,0.3410750760231167,827.7274909120752,None,0.9511,828.210902552004,None,,,,,,,DEC018,001,2022_Nov_04_1511,2-25_cond_decay_EYE-try,2021.2.3,120.0197648768356,
right,1.0,0.75,0,1,0,1,0,1,0,1,0,0,6,6,0,,,,,,,,,,,,,,,1s,829.2526131049963,830.2526260690065,830.2442603070522,None,831.2442110680277,831.4858633190161,831.2442110680277,831.4858633190161,831.4776127350051,None,831.4776127350051,None,space,0.41096466302406043,831.4776127350051,None,0.2373,832.0192370400764,None,,,,,,,DEC018,001,2022_Nov_04_1511,2-25_cond_decay_EYE-try,2021.2.3,120.0197648768356,
left,0.75,1.0,0,1,0,1,0,1,0,1,0,0,7,7,3,,,,,,,,,,,,,,,1s,833.0692180170445,834.069293837063,834.0609255300369,None,835.0609836280346,835.6109256370692,835.0609836280346,835.6109256370692,835.6025639800355,None,835.6025639800355,None,space,0.344357400899753,835.6025639800355,None,0.5477,836.07767513406,None,,,,,,,DEC018,001,2022_Nov_04_1511,2-25_cond_decay_EYE-try,2021.2.3,120.0197648768356,
right,1.0,0.75,0,1,0,1,0,1,0,1,0,0,8,8,8,,,,,,,,,,,,,,,1s,837.1360655620228,838.135999491089,838.1276691270759,None,839.1276492699981,839.410970917088,839.1276492699981,839.410970917088,839.4026009740774,None,839.4026009740774,None,space,0.3860832860227674,839.4026009740774,None,0.2768,839.9193845361006,None,,,,,,,DEC018,001,2022_Nov_04_1511,2-25_cond_decay_EYE-try,2021.2.3,120.0197648768356,
left,0.75,1.0,0,1,0,1,0,1,0,1,0,0,9,9,1,,,,,,,,,,,,,,,1s,840.9694202110404,841.9693297269987,841.9610513900407,None,842.9609678710112,843.4026492810808,842.9609678710112,843.4026492810808,843.394320468069,None,843.394320468069,None,space,0.4506559199653566,843.394320468069,None,0.4385,843.9777491310379,None,,,,,,,DEC018,001,2022_Nov_04_1511,2-25_cond_decay_EYE-try,2021.2.3,120.0197648768356,
right,0.75,1.0,1,1,0,1,0,1,0,1,0,1,0,10,2,,,,,,,,,,,,,,,1s,845.0443937910022,846.0444188280962,846.0276677610818,None,847.027774938033,847.3777495300164,847.027774938033,847.3777495300164,847.3777495300164,None,847.3777495300164,None,space,0.424405450001359,847.3777495300164,None,0.3449,847.9348924930673,None,,,,,,,DEC018,001,2022_Nov_04_1511,2-25_cond_decay_EYE-try,2021.2.3,120.0197648768356,
right,1.0,0.75,0,1,0,1,0,1,0,1,0,1,1,11,0,,,,,,,,,,,,,,,1s,848.9860788070364,849.9860425910447,849.9777297230903,None,850.9777703731088,851.6860498420428,850.9777703731088,851.6860498420428,851.677863467019,None,851.677863467019,None,space,0.38370107498485595,851.677863467019,None,0.7027,852.1944357540924,None,,,,,,,DEC018,001,2022_Nov_04_1511,2-25_cond_decay_EYE-try,2021.2.3,120.0197648768356,
right,1.0,0.75,0,1,0,1,0,1,0,1,0,1,2,12,6,,,,,,,,,,,,,,,1s,853.2444483441068,854.2445055760909,854.2361299210461,None,855.2360816911096,856.0945202710573,855.2360816911096,856.0945202710573,856.0945202710573,None,856.0945202710573,None,space,0.3088322199182585,856.0945202710573,None,0.856,856.5362243650015,None,,,,,,,DEC018,001,2022_Nov_04_1511,2-25_cond_decay_EYE-try,2021.2.3,120.0197648768356,
left,0.75,1.0,0,1,0,1,0,1,0,1,0,1,3,13,4,,,,,,,,,,,,,,,1s,857.5945768280653,858.5945421610959,858.5861462560715,None,859.5862413910218,859.7945821840549,859.5862413910218,859.7945821840549,859.7945821840549,None,859.7945821840549,None,space,0.4243446560576558,859.7945821840549,None,0.2078,860.3444728710456,None,,,,,,,DEC018,001,2022_Nov_04_1511,2-25_cond_decay_EYE-try,2021.2.3,120.0197648768356,
left,1.0,0.75,1,1,0,1,0,1,0,1,0,1,4,14,5,,,,,,,,,,,,,,,1s,861.4099604900694,862.4112565231044,862.3945206740173,None,863.3945505101001,864.1196011441061,863.3945505101001,864.1196011441061,864.1196011441061,None,864.1196011441061,None,space,0.35900516202673316,864.1196011441061,None,0.7216,864.6114109010668,None,,,,,,,DEC018,001,2022_Nov_04_1511,2-25_cond_decay_EYE-try,2021.2.3,120.0197648768356,
left,0.75,1.0,0,1,0,1,0,1,0,1,0,1,5,15,3,,,,,,,,,,,,,,,1s,865.6612695551012,866.6612726240419,866.6528920310084,None,867.6529188350542,867.8945769390557,867.6529188350542,867.8945769390557,867.8862736000447,None,867.8862736000447,None,space,0.41117709199897945,867.8862736000447,None,0.2347,868.4280066890642,None,,,,,,,DEC018,001,2022_Nov_04_1511,2-25_cond_decay_EYE-try,2021.2.3,120.0197648768356,
right,1.0,0.75,0,1,0,1,0,1,0,1,0,1,6,16,8,,,,,,,,,,,,,,,1s,869.4863539290382,870.4863289790228,870.469627109007,None,871.4696002430283,871.9862627330003,871.4696002430283,871.9862627330003,871.9862627330003,None,871.9862627330003,None,space,0.43520542106125504,871.9862627330003,None,0.5137,872.5530366241001,None,,,,,,,DEC018,001,2022_Nov_04_1511,2-25_cond_decay_EYE-try,2021.2.3,120.0197648768356,
left,0.75,1.0,0,1,0,1,0,1,0,1,0,1,7,17,1,,,,,,,,,,,,,,,1s,873.6100848660572,874.611452951096,874.5946570530068,None,875.5947419840377,876.3030628450215,875.5947419840377,876.3030628450215,876.3030628450215,None,876.3030628450215,None,space,0.5004873049911112,876.3030628450215,None,0.6997,876.9351173239993,None,,,,,,,DEC018,001,2022_Nov_04_1511,2-25_cond_decay_EYE-try,2021.2.3,120.0197648768356,
right,1.0,0.75,0,1,0,1,0,1,0,1,0,1,8,18,9,,,,,,,,,,,,,,,1s,877.9948081020266,878.9947424590355,878.9863686350873,None,879.9863947581034,880.5447790800827,879.9863947581034,880.5447790800827,880.5364065991016,None,880.5364065991016,None,space,0.3610772470710799,880.5364065991016,None,0.5539,881.0282032820396,None,,,,,,,DEC018,001,2022_Nov_04_1511,2-25_cond_decay_EYE-try,2021.2.3,120.0197648768356,
left,0.75,1.0,0,1,0,1,0,1,0,1,0,1,9,19,7,,,,,,,,,,,,,,,1s,882.0864530340768,883.0863831990864,883.0780832529999,None,884.0697562820278,884.3031419561012,884.0697562820278,884.3031419561012,884.3031419561012,None,884.3031419561012,None,space,0.47797653905581683,884.3031419561012,None,0.2265,884.9115623710677,None,,,,,,,DEC018,001,2022_Nov_04_1511,2-25_cond_decay_EYE-try,2021.2.3,120.0197648768356,
,,,,1,0,1,0,1,0,1,0,,,,,,,,,,,,,,,,,,,,,,,,,,,,,,,,,,,,,,,,,,,,,DEC018,001,2022_Nov_04_1511,2-25_cond_decay_EYE-try,2021.2.3,120.0197648768356,
left,0.75,1.0,0,1,0,1,0,2,0,2,0,0,0,0,0,,,,,,,,,885.8031558881048,None,885.8031558881048,None,885.8031558881048,None,3s,886.6531730321003,887.653175523039,887.6447534810286,None,888.644874233054,890.3532264340902,888.644874233054,890.3532264340902,890.3447869630763,None,890.3447869630763,None,space,0.34443338494747877,890.3447869630763,None,1.7018,890.8199778170092,None,,,,,,,DEC018,001,2022_Nov_04_1511,2-25_cond_decay_EYE-try,2021.2.3,120.0197648768356,
right,1.0,0.75,0,1,0,1,0,2,0,2,0,0,1,1,6,,,,,,,,,,,,,,,3s,891.8698280340759,892.8698734469945,892.853257592069,None,893.8532564720372,896.6282011090079,893.8532564720372,896.6282011090079,896.6282011090079,None,896.6282011090079,None,space,0.31934047606773674,896.6282011090079,None,2.7757,897.078396024066,None,,,,,,,DEC018,001,2022_Nov_04_1511,2-25_cond_decay_EYE-try,2021.2.3,120.0197648768356,
right,1.0,0.75,0,1,0,1,0,2,0,2,0,0,2,2,7,,,,,,,,,,,,,,,3s,898.1282299180748,899.1282561040716,899.1200224970235,None,900.119889563066,902.1199285110924,900.119889563066,902.1199285110924,902.1199285110924,None,902.1199285110924,None,space,0.3340522359358147,902.1199285110924,None,1.9997,902.5867274500197,None,,,,,,,DEC018,001,2022_Nov_04_1511,2-25_cond_decay_EYE-try,2021.2.3,120.0197648768356,
left,0.75,1.0,0,1,0,1,0,2,0,2,0,0,3,3,4,,,,,,,,,,,,,,,3s,903.6366950690281,904.6366702220403,904.6283690989949,None,905.6282762240153,906.7450262490893,905.6282762240153,906.7450262490893,906.7450262490893,None,906.7450262490893,None,space,0.44941110897343606,906.7450262490893,None,1.1127,907.3199817360146,None,,,,,,,DEC018,001,2022_Nov_04_1511,2-25_cond_decay_EYE-try,2021.2.3,120.0197648768356,
right,1.0,0.75,0,1,0,1,0,2,0,2,0,0,4,4,8,,,,,,,,,,,,,,,3s,908.378364377073,909.3784122420475,909.3616965360707,None,910.3617070820183,912.5034092370188,910.3617070820183,912.5034092370188,912.5034092370188,None,912.5034092370188,None,space,0.3194048560690135,912.5034092370188,None,2.1306,912.9534534420818,None,,,,,,,DEC018,001,2022_Nov_04_1511,2-25_cond_decay_EYE-try,2021.2.3,120.0197648768356,
left,1.0,0.75,1,1,0,1,0,2,0,2,0,0,5,5,9,,,,,,,,,,,,,,,3s,914.0117866049986,915.0118360570632,915.0034454989946,None,916.0034007770009,918.561877146014,916.0034007770009,918.561877146014,918.5534989420557,None,918.5534989420557,None,space,0.43382498098071665,918.5534989420557,None,2.5512,919.1189078000607,None,,,,,,,DEC018,001,2022_Nov_04_1511,2-25_cond_decay_EYE-try,2021.2.3,120.0197648768356,
right,1.0,0.75,0,1,0,1,0,2,0,2,0,0,6,6,3,,,,,,,,,,,,,,,3s,920.1784850910772,921.1785226900829,921.1702464580303,None,922.1701454930007,923.3368162860861,922.1701454930007,923.3368162860861,923.3368162860861,None,923.3368162860861,None,None,,923.3368162860861,None,1.1643,924.4689440990333,None,,,,,,,DEC018,001,2022_Nov_04_1511,2-25_cond_decay_EYE-try,2021.2.3,120.0197648768356,
right,0.75,1.0,1,1,0,1,0,2,0,2,0,0,7,7,5,,,,,,,,,,,,,,,3s,925.5189575901022,926.5202333690831,926.5036315020407,None,927.5035469450522,928.3952624910744,927.5035469450522,928.3952624910744,928.3952624910744,None,928.3952624910744,None,space,0.4444839529460296,928.3952624910744,None,0.8873,928.9702970900107,None,,,,,,,DEC018,001,2022_Nov_04_1511,2-25_cond_decay_EYE-try,2021.2.3,120.0197648768356,
left,0.75,1.0,0,1,0,1,0,2,0,2,0,0,8,8,2,,,,,,,,,,,,,,,3s,930.0285913069965,931.028638167074,931.0202428300399,None,932.0202552330447,933.0786616540281,932.0202552330447,933.0786616540281,933.0786616540281,None,933.0786616540281,None,space,0.33392544696107507,933.0786616540281,None,1.0593,933.544040819048,None,,,,,,,DEC018,001,2022_Nov_04_1511,2-25_cond_decay_EYE-try,2021.2.3,120.0197648768356,
left,0.75,1.0,0,1,0,1,0,2,0,2,0,0,9,9,1,,,,,,,,,,,,,,,3s,934.595270703081,935.6120179930003,935.6036572150188,None,936.595362499007,938.2452916800976,936.595362499007,938.2452916800976,938.220403558109,None,938.220403558109,None,space,0.3611742169596255,938.220403558109,None,1.6352,938.7121341270395,None,,,,,,,DEC018,001,2022_Nov_04_1511,2-25_cond_decay_EYE-try,2021.2.3,120.0197648768356,
right,0.75,1.0,1,1,0,1,0,2,0,2,0,1,0,10,5,,,,,,,,,,,,,,,3s,939.7703759809956,940.7704172760714,940.7620430090465,None,941.7620178520447,943.0703423040686,941.7620178520447,943.0703423040686,943.06201526511,None,943.06201526511,None,space,0.5494211820187047,943.06201526511,None,1.3012,943.7537872960092,None,,,,,,,DEC018,001,2022_Nov_04_1511,2-25_cond_decay_EYE-try,2021.2.3,120.0197648768356,
left,0.75,1.0,0,1,0,1,0,2,0,2,0,1,1,11,4,,,,,,,,,,,,,,,3s,944.8025004080264,945.8038416540949,945.7870255530579,None,946.7870571149979,947.5787250180729,946.7870571149979,947.5787250180729,947.5787250180729,None,947.5787250180729,None,space,0.7026365720666945,947.5787250180729,None,0.7865,948.4121674700873,None,,,,,,,DEC018,001,2022_Nov_04_1511,2-25_cond_decay_EYE-try,2021.2.3,120.0197648768356,
right,1.0,0.75,0,1,0,1,0,2,0,2,0,1,2,12,6,,,,,,,,,,,,,,,3s,949.4705065730959,950.4705242090859,950.4621063660597,None,951.4621269321069,954.053871546057,951.4621269321069,954.053871546057,954.0454731370555,None,954.0454731370555,None,space,0.7109706649789587,954.0454731370555,None,2.5874,954.8872355869971,None,,,,,,,DEC018,001,2022_Nov_04_1511,2-25_cond_decay_EYE-try,2021.2.3,120.0197648768356,
left,0.75,1.0,0,1,0,1,0,2,0,2,0,1,3,13,0,,,,,,,,,,,,,,,3s,955.9372452800162,956.9372273930348,956.9205604310846,None,957.920513618039,958.6871805000119,957.920513618039,958.6871805000119,958.6871805000119,None,958.6871805000119,None,space,0.5327421579277143,958.6871805000119,None,0.76,959.3526532420656,None,,,,,,,DEC018,001,2022_Nov_04_1511,2-25_cond_decay_EYE-try,2021.2.3,120.0197648768356,
left,1.0,0.75,1,1,0,1,0,2,0,2,0,1,4,14,9,,,,,,,,,,,,,,,3s,960.4038510470418,961.4039460100466,961.3955427909968,None,962.3956042740028,965.1789125410141,962.3956042740028,965.1789125410141,965.1789125410141,None,965.1789125410141,None,space,0.4943789270473644,965.1789125410141,None,2.7816,965.8040532050654,None,,,,,,,DEC018,001,2022_Nov_04_1511,2-25_cond_decay_EYE-try,2021.2.3,120.0197648768356,
left,0.75,1.0,0,1,0,1,0,2,0,2,0,1,5,15,1,,,,,,,,,,,,,,,3s,966.8539723170688,967.8540250660153,967.8456051030662,None,968.8456881419988,969.770634544082,968.8456881419988,969.770634544082,969.7623202160466,None,969.7623202160466,None,space,0.4910403999965638,969.7623202160466,None,0.9215,970.3861143010436,None,,,,,,,DEC018,001,2022_Nov_04_1511,2-25_cond_decay_EYE-try,2021.2.3,120.0197648768356,
left,0.75,1.0,0,1,0,1,0,2,0,2,0,1,6,16,2,,,,,,,,,,,,,,,3s,971.4373939940706,972.4374070970807,972.4290929830167,None,973.4456465780968,975.162486136076,973.4456465780968,975.162486136076,975.1373568420531,None,975.1373568420531,None,space,0.435972110950388,975.1373568420531,None,1.7109,975.704170890036,None,,,,,,,DEC018,001,2022_Nov_04_1511,2-25_cond_decay_EYE-try,2021.2.3,120.0197648768356,
right,1.0,0.75,0,1,0,1,0,2,0,2,0,1,7,17,8,,,,,,,,,,,,,,,3s,976.7707919320092,977.7707846650155,977.7458524530521,None,978.7458183850395,981.6458227389958,978.7458183850395,981.6458227389958,981.6374268120853,None,981.6374268120853,None,space,0.4526578920194879,981.6374268120853,None,2.8983,982.2208461430855,None,,,,,,,DEC018,001,2022_Nov_04_1511,2-25_cond_decay_EYE-try,2021.2.3,120.0197648768356,
right,1.0,0.75,0,1,0,1,0,2,0,2,0,1,8,18,3,,,,,,,,,,,,,,,3s,983.2708003510488,984.2708639471093,984.2625155510614,None,985.2625142590841,987.4541833890835,985.2625142590841,987.4541833890835,987.4458095030859,None,987.4458095030859,None,space,0.8173466949956492,987.4458095030859,None,2.189,988.3959386490751,None,,,,,,,DEC018,001,2022_Nov_04_1511,2-25_cond_decay_EYE-try,2021.2.3,120.0197648768356,
right,1.0,0.75,0,1,0,1,0,2,0,2,0,1,9,19,7,,,,,,,,,,,,,,,3s,989.4542598570697,990.454236892052,990.4459360340843,None,991.4458866850473,994.1793001840124,991.4458866850473,994.1793001840124,994.1710019650636,995.1709632480051,994.1710019650636,995.1709632480051,None,,994.1710019650636,995.1709632480051,2.7292,995.3042519370792,None,,,,,,,DEC018,001,2022_Nov_04_1511,2-25_cond_decay_EYE-try,2021.2.3,120.0197648768356,
,,,,1,0,1,0,2,0,2,0,,,,,,,,,,,,,,,,,,,,,,,,,,,,,,,,,,,,,,,,,,,,,DEC018,001,2022_Nov_04_1511,2-25_cond_decay_EYE-try,2021.2.3,120.0197648768356,
right,1.0,0.75,0,1,0,1,0,3,0,3,0,0,0,0,4,,,,,,,,,996.1959457970224,None,996.1959457970224,None,996.1959457970224,None,10s,999.8961294750916,1000.896019442007,1000.8876302870922,None,1001.8877624330344,1003.554312377004,1001.8877624330344,1003.554312377004,1003.5460867630318,1004.5460416279966,1003.5460867630318,1004.5460416279966,None,,1003.5460867630318,1004.5460416279966,1.6612,1004.6781121150125,None,,,,,,,DEC018,001,2022_Nov_04_1511,2-25_cond_decay_EYE-try,2021.2.3,120.0197648768356,
left,0.75,1.0,0,1,0,1,0,3,0,3,0,0,1,1,1,,,,,,,,,,,,,,,10s,1005.7364577311091,1006.7377471020445,1006.7210540040396,None,1007.7210156380897,1008.7711333991028,1007.7210156380897,1008.7711333991028,1008.7711333991028,None,1008.7711333991028,None,space,0.41112950700335205,1008.7711333991028,None,1.0495,1009.3128009240609,None,,,,,,,DEC018,001,2022_Nov_04_1511,2-25_cond_decay_EYE-try,2021.2.3,120.0197648768356,
right,1.0,0.75,0,1,0,1,0,3,0,3,0,0,2,2,6,,,,,,,,,,,,,,,10s,1010.3628058580216,1011.3627348530572,1011.3460716080153,None,1012.3627529391088,1014.0877937590703,1012.3627529391088,1014.0877937590703,1014.0628323700512,None,1014.0628323700512,None,space,0.44426094891969115,1014.0628323700512,None,1.7113,1014.6378453210928,None,,,,,,,DEC018,001,2022_Nov_04_1511,2-25_cond_decay_EYE-try,2021.2.3,120.0197648768356,
left,0.75,1.0,0,1,0,1,0,3,0,3,0,0,3,3,2,,,,,,,,,,,,,,,10s,1015.6962124030106,1016.712857713108,1016.7032004260691,None,1017.6878094740678,1022.7628876880044,1017.6878094740678,1022.7628876880044,1022.7544932190794,None,1022.7544932190794,None,space,0.31937357294373214,1022.7544932190794,None,5.0705,1023.204689654056,None,,,,,,,DEC018,001,2022_Nov_04_1511,2-25_cond_decay_EYE-try,2021.2.3,120.0197648768356,
left,1.0,0.75,1,1,0,1,0,3,0,3,0,0,4,4,0,,,,,,,,,,,,,,,10s,1024.2546405220637,1025.2545858049998,1025.2462580370484,None,1026.2463161030319,1030.8712890840834,1026.2463161030319,1030.8712890840834,1030.8629276580177,None,1030.8629276580177,None,space,0.4277324239956215,1030.8629276580177,None,4.619,1031.4213289400795,None,,,,,,,DEC018,001,2022_Nov_04_1511,2-25_cond_decay_EYE-try,2021.2.3,120.0197648768356,
right,0.75,1.0,1,1,0,1,0,3,0,3,0,0,5,5,5,,,,,,,,,,,,,,,10s,1032.4796695940895,1033.4797321680235,1033.4797321680235,None,1034.4797360179946,1037.6379840230802,1034.4797360179946,1037.6379840230802,1037.6296704011038,1038.6297400511103,1037.6296704011038,1038.6297400511103,None,,1037.6296704011038,1038.6297400511103,3.1561,1038.763070632005,None,,,,,,,DEC018,001,2022_Nov_04_1511,2-25_cond_decay_EYE-try,2021.2.3,120.0197648768356,
right,1.0,0.75,0,1,0,1,0,3,0,3,0,0,6,6,8,,,,,,,,,,,,,,,10s,1039.8130612140521,1040.8130856300704,1040.804797802004,None,1041.804783023079,1050.8047761830967,1041.804783023079,1050.8047761830967,1050.7964866471011,1051.796547089005,1050.7964866471011,1051.796547089005,None,,1050.7964866471011,1051.796547089005,8.9936,1051.9298788961023,None,,,,,,,DEC018,001,2022_Nov_04_1511,2-25_cond_decay_EYE-try,2021.2.3,120.0197648768356,
left,0.75,1.0,0,1,0,1,0,3,0,3,0,0,7,7,7,,,,,,,,,,,,,,,10s,1052.9882708450314,1053.9882220590953,1053.9798683651024,None,1054.9798591030994,1062.7132815800142,1054.9798591030994,1062.7132815800142,1062.7049043270526,None,1062.7049043270526,None,space,0.38607294706162065,1062.7049043270526,None,7.7331,1063.2382790260017,None,,,,,,,DEC018,001,2022_Nov_04_1511,2-25_cond_decay_EYE-try,2021.2.3,120.0197648768356,
right,1.0,0.75,0,1,0,1,0,3,0,3,0,0,8,8,9,,,,,,,,,,,,,,,10s,1064.2799258010928,1065.279952167999,1065.271614610101,None,1066.2716333090793,1074.5467428710544,1066.2716333090793,1074.5467428710544,1074.5467428710544,None,1074.5467428710544,None,space,0.49444408691488206,1074.5467428710544,None,8.2746,1075.1718257660978,None,,,,,,,DEC018,001,2022_Nov_04_1511,2-25_cond_decay_EYE-try,2021.2.3,120.0197648768356,
right,1.0,0.75,0,1,0,1,0,3,0,3,0,0,9,9,3,,,,,,,,,,,,,,,10s,1076.221732982085,1077.2218294530176,1077.2134660640731,None,1078.2134031490423,1085.1468143620295,1078.2134031490423,1085.1468143620295,1085.1468143620295,None,1085.1468143620295,None,space,0.4172754680039361,1085.1468143620295,None,6.9339,1085.6884733010083,None,,,,,,,DEC018,001,2022_Nov_04_1511,2-25_cond_decay_EYE-try,2021.2.3,120.0197648768356,
right,1.0,0.75,0,1,0,1,0,3,0,3,0,1,0,10,6,,,,,,,,,,,,,,,10s,1086.7468785149977,1087.7469304651022,1087.7385324490024,None,1088.7386358820368,1091.3802417170955,1088.7386358820368,1091.3802417170955,1091.3802417170955,None,1091.3802417170955,None,None,,1091.3802417170955,None,2.6409,1092.5303357570665,None,,,,,,,DEC018,001,2022_Nov_04_1511,2-25_cond_decay_EYE-try,2021.2.3,120.0197648768356,
right,1.0,0.75,0,1,0,1,0,3,0,3,0,1,1,11,3,,,,,,,,,,,,,,,10s,1093.5803534419974,1094.5887046060525,1094.5887046060525,None,1095.5719752480509,1100.796979879029,1095.5719752480509,1100.796979879029,1100.7886779590044,None,1100.7886779590044,None,space,0.344586580991745,1100.7886779590044,None,5.2196,1101.263717119,None,,,,,,,DEC018,001,2022_Nov_04_1511,2-25_cond_decay_EYE-try,2021.2.3,120.0197648768356,
left,0.75,1.0,0,1,0,1,0,3,0,3,0,1,2,12,7,,,,,,,,,,,,,,,10s,1102.3304351860425,1103.3305060390849,1103.3220290530007,None,1104.3136723160278,1109.288730098051,1104.3136723160278,1109.288730098051,1109.288730098051,None,1109.288730098051,None,space,0.40152717498131096,1109.288730098051,None,4.9718,1109.8209521610988,None,,,,,,,DEC018,001,2022_Nov_04_1511,2-25_cond_decay_EYE-try,2021.2.3,120.0197648768356,
left,0.75,1.0,0,1,0,1,0,3,0,3,0,1,3,13,1,,,,,,,,,,,,,,,10s,1110.8792278080946,1111.8805980910547,1111.86377851211,None,1112.8638299010927,1113.4887770720525,1112.8638299010927,1113.4887770720525,1113.4887770720525,None,1113.4887770720525,None,space,0.6590507309883833,1113.4887770720525,None,0.6235,1114.279278564034,None,,,,,,,DEC018,001,2022_Nov_04_1511,2-25_cond_decay_EYE-try,2021.2.3,120.0197648768356,
right,1.0,0.75,0,1,0,1,0,3,0,3,0,1,4,14,8,,,,,,,,,,,,,,,10s,1115.3388953570975,1116.3388818911044,1116.3221591480542,None,1117.3221841080813,1120.3221893101,1117.3221841080813,1120.3221893101,1120.3221893101,None,1120.3221893101,None,space,0.4778647859347984,1120.3221893101,None,2.9952,1120.9305807610508,None,,,,,,,DEC018,001,2022_Nov_04_1511,2-25_cond_decay_EYE-try,2021.2.3,120.0197648768356,
left,1.0,0.75,1,1,0,1,0,3,0,3,0,1,5,15,0,,,,,,,,,,,,,,,10s,1121.987686145003,1122.9888699750882,1122.9722031780984,None,1123.9722237261012,1130.3390320520848,1123.9722237261012,1130.3390320520848,1130.3390320520848,None,1130.3390320520848,None,space,0.4444632810773328,1130.3390320520848,None,6.35,1130.9141302130884,None,,,,,,,DEC018,001,2022_Nov_04_1511,2-25_cond_decay_EYE-try,2021.2.3,120.0197648768356,
left,0.75,1.0,0,1,0,1,0,3,0,3,0,1,6,16,4,,,,,,,,,,,,,,,10s,1131.9639987970004,1132.9640354040312,1132.9474169641035,None,1133.9556526730303,1137.1807429400505,1133.9556526730303,1137.1807429400505,1137.1723484590184,None,1137.1723484590184,None,None,,1137.1723484590184,None,3.2228,1138.2974647670053,None,,,,,,,DEC018,001,2022_Nov_04_1511,2-25_cond_decay_EYE-try,2021.2.3,120.0197648768356,
right,1.0,0.75,0,1,0,1,0,3,0,3,0,1,7,17,9,,,,,,,,,,,,,,,10s,1139.35583472508,1140.3557882891037,1140.347472544061,None,1141.3557200190844,1151.1226580200018,1141.3557200190844,1151.1226580200018,1151.080875658081,None,1151.080875658081,None,space,0.43608119199052453,1151.080875658081,None,9.7411,1151.6475081410026,None,,,,,,,DEC018,001,2022_Nov_04_1511,2-25_cond_decay_EYE-try,2021.2.3,120.0197648768356,
left,0.75,1.0,0,1,0,1,0,3,0,3,0,1,8,18,2,,,,,,,,,,,,,,,10s,1152.7059257030487,1153.7059269360034,1153.6976454860996,None,1154.6975191400852,1157.7142743540462,1154.6975191400852,1157.7142743540462,1157.7059116940945,None,1157.7059116940945,None,space,0.39445548492949456,1157.7059116940945,None,3.0098,1158.2310006890912,None,,,,,,,DEC018,001,2022_Nov_04_1511,2-25_cond_decay_EYE-try,2021.2.3,120.0197648768356,
right,0.75,1.0,1,1,0,1,0,3,0,3,0,1,9,19,5,,,,,,,,,,,,,,,10s,1159.288065145025,1160.2893470560666,1160.27261860203,None,1161.2726618080633,1163.4976460540202,1161.2726618080633,1163.4976460540202,1163.4893203680404,1164.489450645051,1163.4893203680404,1164.489450645051,None,,1163.4893203680404,1164.489450645051,2.2179,1164.6227515391074,None,,,,,,,DEC018,001,2022_Nov_04_1511,2-25_cond_decay_EYE-try,2021.2.3,120.0197648768356,
,,,,1,0,1,0,3,0,3,0,,,,,,,,,,,,,,,,,,,,,,,,,,,,,,,,,,,,,,,,,,,,,DEC018,001,2022_Nov_04_1511,2-25_cond_decay_EYE-try,2021.2.3,120.0197648768356,
,,,,1,0,1,0,,,,,,,,,,,,,,,,,,,,,,,,,,,,,,,,,,,,,,,,,,,1165.514352984028,None,1165.514352984028,None,1165.514352984028,None,DEC018,001,2022_Nov_04_1511,2-25_cond_decay_EYE-try,2021.2.3,120.0197648768356,
left,0.75,1.0,0,2,0,2,0,0,0,0,0,0,0,0,3,,,,,,,,,1170.5144326341106,None,1170.5144326341106,None,1170.5144326341106,None,1s,1202.4230944090523,1203.4314096650342,1203.423241776065,None,1204.4147379170172,1204.623040192062,1204.4147379170172,1204.623040192062,1204.614720123005,None,1204.614720123005,None,space,0.5589752420783043,1204.614720123005,None,0.201,1205.3064840100706,None,,,,,,,DEC018,001,2022_Nov_04_1511,2-25_cond_decay_EYE-try,2021.2.3,120.0197648768356,
right,1.0,0.75,0,2,0,2,0,0,0,0,0,0,1,1,0,,,,,,,,,,,,,,,1s,1206.3814970590174,1207.3814795740182,1207.3564253790537,None,1208.3564563840628,1208.8481215049978,1208.3564563840628,1208.8481215049978,1208.8397944740718,None,1208.8397944740718,None,space,0.3778597889468074,1208.8397944740718,None,0.4884,1209.3481944430387,None,,,,,,,DEC018,001,2022_Nov_04_1511,2-25_cond_decay_EYE-try,2021.2.3,120.0197648768356,
right,1.0,0.75,0,2,0,2,0,0,0,0,0,0,2,2,8,,,,,,,,,,,,,,,1s,1210.3982053190703,1211.3982394710183,1211.3897843350423,None,1212.3898169130553,1212.5981621000683,1212.3898169130553,1212.5981621000683,1212.5898486780934,None,1212.5898486780934,None,space,0.357705757021904,1212.5898486780934,None,0.2021,1213.07314670505,None,,,,,,,DEC018,001,2022_Nov_04_1511,2-25_cond_decay_EYE-try,2021.2.3,120.0197648768356,
left,1.0,0.75,1,2,0,2,0,0,0,0,0,0,3,3,7,,,,,,,,,,,,,,,1s,1214.1314866640605,1215.1315687800525,1215.1232740289997,None,1216.1232485630317,1217.056521406048,1216.1232485630317,1217.056521406048,1217.0482007720275,None,1217.0482007720275,None,space,0.35053592699114233,1217.0482007720275,None,0.9305,1217.5303157200105,None,,,,,,,DEC018,001,2022_Nov_04_1511,2-25_cond_decay_EYE-try,2021.2.3,120.0197648768356,
left,0.75,1.0,0,2,0,2,0,0,0,0,0,0,4,4,5,,,,,,,,,,,,,,,1s,1218.5815175820608,1219.581598470104,1219.573223317042,None,1220.5732101351023,1221.2149771200493,1220.5732101351023,1221.2149771200493,1221.2149771200493,None,1221.2149771200493,None,space,0.375463780015707,1221.2149771200493,None,0.6158,1221.7220545030432,None,,,,,,,DEC018,001,2022_Nov_04_1511,2-25_cond_decay_EYE-try,2021.2.3,120.0197648768356,
right,1.0,0.75,0,2,0,2,0,0,0,0,0,0,5,5,6,,,,,,,,,,,,,,,1s,1222.7816621750826,1223.7815815410577,1223.773268685094,None,1224.773327712086,1224.9815943530994,1224.773327712086,1224.9815943530994,1224.9732574670343,None,1224.9732574670343,None,space,0.42784350097645074,1224.9732574670343,None,0.2011,1225.5304879790638,None,,,,,,,DEC018,001,2022_Nov_04_1511,2-25_cond_decay_EYE-try,2021.2.3,120.0197648768356,
left,0.75,1.0,0,2,0,2,0,0,0,0,0,0,6,6,9,,,,,,,,,,,,,,,1s,1226.588753537042,1227.5900410480099,1227.573405710049,None,1228.5733309910866,1228.8233650240581,1228.5733309910866,1228.8233650240581,1228.8233650240581,None,1228.8233650240581,None,space,0.39441850793082267,1228.8233650240581,None,0.2494,1229.3484062351054,None,,,,,,,DEC018,001,2022_Nov_04_1511,2-25_cond_decay_EYE-try,2021.2.3,120.0197648768356,
left,0.75,1.0,0,2,0,2,0,0,0,0,0,0,7,7,1,,,,,,,,,,,,,,,1s,1230.3983691160101,1231.3984300750308,1231.3984300750308,None,1232.3900314260973,1233.0317453310126,1232.3900314260973,1233.0317453310126,1233.0317453310126,None,1233.0317453310126,None,space,0.41091557405889034,1233.0317453310126,None,0.641,1233.573520707083,None,,,,,,,DEC018,001,2022_Nov_04_1511,2-25_cond_decay_EYE-try,2021.2.3,120.0197648768356,
left,0.75,1.0,0,2,0,2,0,0,0,0,0,0,8,8,2,,,,,,,,,,,,,,,1s,1234.6234128020005,1235.6234650970437,1235.6150555660715,None,1236.6150736380368,1236.8567540980875,1236.6150736380368,1236.8567540980875,1236.8567540980875,None,1236.8567540980875,None,space,0.40252170502208173,1236.8567540980875,None,0.238,1237.3902449849993,None,,,,,,,DEC018,001,2022_Nov_04_1511,2-25_cond_decay_EYE-try,2021.2.3,120.0197648768356,
right,1.0,0.75,0,2,0,2,0,0,0,0,0,0,9,9,4,,,,,,,,,,,,,,,1s,1238.4555317930644,1239.4568224101095,1239.440129677998,None,1240.4400965650566,1240.9484278770396,1240.4400965650566,1240.9484278770396,1240.9484278770396,None,1240.9484278770396,None,space,0.33605637995060533,1240.9484278770396,None,0.5082,1241.4152069910197,None,,,,,,,DEC018,001,2022_Nov_04_1511,2-25_cond_decay_EYE-try,2021.2.3,120.0197648768356,
right,1.0,0.75,0,2,0,2,0,0,0,0,0,1,0,10,6,,,,,,,,,,,,,,,1s,1242.4735028560972,1243.4734533370938,1243.4568470480153,None,1244.4568091810215,1244.623494471074,1244.4568091810215,1244.623494471074,1244.623494471074,None,1244.623494471074,None,space,0.40308163699228317,1244.623494471074,None,0.1673,1245.1568785910495,None,,,,,,,DEC018,001,2022_Nov_04_1511,2-25_cond_decay_EYE-try,2021.2.3,120.0197648768356,
left,1.0,0.75,1,2,0,2,0,0,0,0,0,1,1,11,7,,,,,,,,,,,,,,,1s,1246.2152496830095,1247.2152837230824,1247.2068164560478,None,1248.206841589068,1249.0652465050807,1248.206841589068,1249.0652465050807,1249.0652465050807,None,1249.0652465050807,None,space,0.3859272999688983,1249.0652465050807,None,0.8571,1249.5820419690572,None,,,,,,,DEC018,001,2022_Nov_04_1511,2-25_cond_decay_EYE-try,2021.2.3,120.0197648768356,
right,1.0,0.75,0,2,0,2,0,0,0,0,0,1,2,12,4,,,,,,,,,,,,,,,1s,1250.6473274740856,1251.6486260780366,1251.631898094085,None,1252.6235438650474,1253.3652687669965,1252.6235438650474,1253.3652687669965,1253.3652687669965,None,1253.3652687669965,None,space,0.3358601829968393,1253.3652687669965,None,0.7405,1253.8320784770185,None,,,,,,,DEC018,001,2022_Nov_04_1511,2-25_cond_decay_EYE-try,2021.2.3,120.0197648768356,
left,0.75,1.0,0,2,0,2,0,0,0,0,0,1,3,13,5,,,,,,,,,,,,,,,1s,1254.8902974610683,1255.8902750670677,1255.8820326750865,None,1256.8819736010628,1257.6986642340198,1256.8819736010628,1257.6986642340198,1257.6986642340198,None,1257.6986642340198,None,space,0.2838504039682448,1257.6986642340198,None,0.8086,1258.1154565950856,None,,,,,,,DEC018,001,2022_Nov_04_1511,2-25_cond_decay_EYE-try,2021.2.3,120.0197648768356,
right,1.0,0.75,0,2,0,2,0,0,0,0,0,1,4,14,8,,,,,,,,,,,,,,,1s,1259.1736959021073,1260.1737789200852,1260.165296958061,None,1261.1653613580856,1262.1237462030258,1261.1653613580856,1262.1237462030258,1262.0986530350056,None,1262.0986530350056,None,space,0.4340446679852903,1262.0986530350056,None,0.9369,1262.6808024430647,None,,,,,,,DEC018,001,2022_Nov_04_1511,2-25_cond_decay_EYE-try,2021.2.3,120.0197648768356,
right,1.0,0.75,0,2,0,2,0,0,0,0,0,1,5,15,0,,,,,,,,,,,,,,,1s,1263.7154293940403,1264.715423634043,1264.7070867610164,None,1265.7070390559966,1265.9236772420118,1265.7070390559966,1265.9236772420118,1265.9154147920199,None,1265.9154147920199,None,space,0.5276237480575219,1265.9154147920199,None,0.2108,1266.5737919090316,None,,,,,,,DEC018,001,2022_Nov_04_1511,2-25_cond_decay_EYE-try,2021.2.3,120.0197648768356,
right,0.75,1.0,1,2,0,2,0,0,0,0,0,1,6,16,3,,,,,,,,,,,,,,,1s,1267.6237172940746,1268.6238200580701,1268.6154683430213,None,1269.6154573820531,1270.0404389430769,1269.6154573820531,1270.0404389430769,1270.0404389430769,None,1270.0404389430769,None,space,0.4756765489000827,1270.0404389430769,None,0.4247,1270.6475541041,None,,,,,,,DEC018,001,2022_Nov_04_1511,2-25_cond_decay_EYE-try,2021.2.3,120.0197648768356,
left,0.75,1.0,0,2,0,2,0,0,0,0,0,1,7,17,2,,,,,,,,,,,,,,,1s,1271.698756939033,1272.6988542620093,1272.6904716570862,None,1273.690539650037,1274.6821007210528,1273.690539650037,1274.6821007210528,1274.6738035070011,None,1274.6738035070011,None,space,0.519329818082042,1274.6738035070011,None,0.9865,1275.3404863100732,None,,,,,,,DEC018,001,2022_Nov_04_1511,2-25_cond_decay_EYE-try,2021.2.3,120.0197648768356,
left,0.75,1.0,0,2,0,2,0,0,0,0,0,1,8,18,1,,,,,,,,,,,,,,,1s,1276.3822020960506,1277.3822275490966,1277.3738448640797,None,1278.373817706015,1279.023848913028,1278.373817706015,1279.023848913028,1279.023848913028,None,1279.023848913028,None,space,0.4525748899905011,1279.023848913028,None,0.6495,1279.6072489910293,None,,,,,,,DEC018,001,2022_Nov_04_1511,2-25_cond_decay_EYE-try,2021.2.3,120.0197648768356,
left,0.75,1.0,0,2,0,2,0,0,0,0,0,1,9,19,9,,,,,,,,,,,,,,,1s,1280.6655462350463,1281.6655971510336,1281.6571807350265,None,1282.6572025980568,1282.957301157061,1282.6572025980568,1282.957301157061,1282.957301157061,None,1282.957301157061,None,space,0.7672283060383052,1282.957301157061,None,0.2967,1283.857301807031,None,,,,,,,DEC018,001,2022_Nov_04_1511,2-25_cond_decay_EYE-try,2021.2.3,120.0197648768356,
,,,,2,0,2,0,0,0,0,0,,,,,,,,,,,,,,,,,,,,,,,,,,,,,,,,,,,,,,,,,,,,,DEC018,001,2022_Nov_04_1511,2-25_cond_decay_EYE-try,2021.2.3,120.0197648768356,
right,1.0,0.75,0,2,0,2,0,1,0,1,0,0,0,0,7,,,,,,,,,1284.748994188034,None,1284.748994188034,None,1284.748994188034,None,3s,1287.8488995160442,1288.8490044520004,1288.8490044520004,None,1289.8406137450365,1290.265637200093,1289.8406137450365,1290.265637200093,1290.265637200093,None,1290.265637200093,None,space,0.39432712306734174,1290.265637200093,None,0.4229,1290.7906835910399,None,,,,,,,DEC018,001,2022_Nov_04_1511,2-25_cond_decay_EYE-try,2021.2.3,120.0197648768356,
right,1.0,0.75,0,2,0,2,0,1,0,1,0,0,1,1,4,,,,,,,,,,,,,,,3s,1291.8406735140597,1292.8573404510971,1292.8490243770648,None,1293.8323212700197,1296.1990437090863,1293.8323212700197,1296.1990437090863,1296.1990437090863,None,1296.1990437090863,None,space,0.2859844460617751,1296.1990437090863,None,2.3677,1296.6157896560617,None,,,,,,,DEC018,001,2022_Nov_04_1511,2-25_cond_decay_EYE-try,2021.2.3,120.0197648768356,
left,0.75,1.0,0,2,0,2,0,1,0,1,0,0,2,2,6,,,,,,,,,,,,,,,3s,1297.6741315590916,1298.6741026620148,1298.6657036500983,None,1299.6657197159948,1300.7908178440994,1299.6657197159948,1300.7908178440994,1300.7824164490448,None,1300.7824164490448,None,space,0.3423841599142179,1300.7824164490448,None,1.1212,1301.2561722820392,None,,,,,,,DEC018,001,2022_Nov_04_1511,2-25_cond_decay_EYE-try,2021.2.3,120.0197648768356,
left,0.75,1.0,0,2,0,2,0,1,0,1,0,0,3,3,1,,,,,,,,,,,,,,,3s,1302.314521174063,1303.3157998831011,1303.299186683027,None,1304.299096337054,1304.5908044290263,1304.299096337054,1304.5908044290263,1304.5908044290263,None,1304.5908044290263,None,space,0.3860746609279886,1304.5908044290263,None,0.2805,1305.107514757081,None,,,,,,,DEC018,001,2022_Nov_04_1511,2-25_cond_decay_EYE-try,2021.2.3,120.0197648768356,
left,1.0,0.75,1,2,0,2,0,1,0,1,0,0,4,4,2,,,,,,,,,,,,,,,3s,1306.164572021109,1307.165793169057,1307.149129883037,None,1308.149169512093,1308.3492126771016,1308.149169512093,1308.3492126771016,1308.3492126771016,None,1308.3492126771016,None,space,0.541035528993234,1308.3492126771016,None,0.1955,1309.0158699760213,None,,,,,,,DEC018,001,2022_Nov_04_1511,2-25_cond_decay_EYE-try,2021.2.3,120.0197648768356,
right,0.75,1.0,1,2,0,2,0,1,0,1,0,0,5,5,8,,,,,,,,,,,,,,,3s,1310.0825066540856,1311.0826035330538,1311.0659323320724,None,1312.0741757020587,1313.9325109940255,1312.0741757020587,1313.9325109940255,1313.9242318170145,None,1313.9242318170145,None,space,0.31107248994521797,1313.9242318170145,None,1.8581,1314.3659855780425,None,,,,,,,DEC018,001,2022_Nov_04_1511,2-25_cond_decay_EYE-try,2021.2.3,120.0197648768356,
left,0.75,1.0,0,2,0,2,0,1,0,1,0,0,6,6,3,,,,,,,,,,,,,,,3s,1315.4242700360483,1316.4242430890445,1316.4158884240314,None,1317.415942619089,1319.3826581781032,1317.415942619089,1319.3826581781032,1319.374336784007,None,1319.374336784007,None,space,0.2692738090408966,1319.374336784007,None,1.9638,1319.7743033031002,None,,,,,,,DEC018,001,2022_Nov_04_1511,2-25_cond_decay_EYE-try,2021.2.3,120.0197648768356,
right,1.0,0.75,0,2,0,2,0,1,0,1,0,0,7,7,0,,,,,,,,,,,,,,,3s,1320.8243260540767,1321.8242960490752,1321.8160131120821,None,1322.8159708060557,1325.132640611031,1322.8159708060557,1325.132640611031,1325.132640611031,None,1325.132640611031,None,space,0.3196088520344347,1325.132640611031,None,2.3155,1325.5827805560548,None,,,,,,,DEC018,001,2022_Nov_04_1511,2-25_cond_decay_EYE-try,2021.2.3,120.0197648768356,
left,0.75,1.0,0,2,0,2,0,1,0,1,0,0,8,8,5,,,,,,,,,,,,,,,3s,1326.6397779959952,1327.6411047551082,1327.6243345860858,None,1328.6243335451,1329.1576995661017,1328.6243335451,1329.1576995661017,1329.1495098310988,None,1329.1495098310988,None,space,0.5504893939942122,1329.1495098310988,None,0.518,1329.8244110411033,None,,,,,,,DEC018,001,2022_Nov_04_1511,2-25_cond_decay_EYE-try,2021.2.3,120.0197648768356,
right,1.0,0.75,0,2,0,2,0,1,0,1,0,0,9,9,9,,,,,,,,,,,,,,,3s,1330.8910392080434,1331.8910902370699,1331.8827521490166,None,1332.8828181900317,1334.9577359140385,1332.8828181900317,1334.9577359140385,1334.9577359140385,None,1334.9577359140385,None,space,0.3757236710516736,1334.9577359140385,None,2.0682,1335.4648906160146,None,,,,,,,DEC018,001,2022_Nov_04_1511,2-25_cond_decay_EYE-try,2021.2.3,120.0197648768356,
right,0.75,1.0,1,2,0,2,0,1,0,1,0,1,0,10,8,,,,,,,,,,,,,,,3s,1336.5327728150878,1337.5328498630552,1337.5244753920706,None,1338.5244806701085,1339.8327968521044,1338.5244806701085,1339.8327968521044,1339.824547099066,1340.8245772150112,1339.824547099066,1340.8245772150112,None,,1339.824547099066,1340.8245772150112,1.3025,1340.9578242950374,None,,,,,,,DEC018,001,2022_Nov_04_1511,2-25_cond_decay_EYE-try,2021.2.3,120.0197648768356,
right,1.0,0.75,0,2,0,2,0,1,0,1,0,1,1,11,9,,,,,,,,,,,,,,,3s,1342.0079102100572,1343.0080013170373,1342.9994722860865,None,1343.9995666050818,1345.7079208480427,1343.9995666050818,1345.7079208480427,1345.7079208480427,None,1345.7079208480427,None,None,,1345.7079208480427,None,1.7035,1346.824564345996,None,,,,,,,DEC018,001,2022_Nov_04_1511,2-25_cond_decay_EYE-try,2021.2.3,120.0197648768356,
left,0.75,1.0,0,2,0,2,0,1,0,1,0,1,2,12,5,,,,,,,,,,,,,,,3s,1347.891327096033,1348.891297113034,1348.8830063130008,None,1349.8829288140405,1352.4246713640168,1349.8829288140405,1352.4246713640168,1352.416240057093,None,1352.416240057093,None,space,0.35294439701829106,1352.416240057093,None,2.5378,1352.8996359360171,None,,,,,,,DEC018,001,2022_Nov_04_1511,2-25_cond_decay_EYE-try,2021.2.3,120.0197648768356,
left,0.75,1.0,0,2,0,2,0,1,0,1,0,1,3,13,3,,,,,,,,,,,,,,,3s,1353.958094549016,1354.9580189801054,1354.9496493350016,None,1355.9496371340938,1356.6996438161004,1355.9496371340938,1356.6996438161004,1356.6913028600393,None,1356.6913028600393,None,space,0.3610697849653661,1356.6913028600393,None,0.7482,1357.1829988610698,None,,,,,,,DEC018,001,2022_Nov_04_1511,2-25_cond_decay_EYE-try,2021.2.3,120.0197648768356,
left,0.75,1.0,0,2,0,2,0,1,0,1,0,1,4,14,1,,,,,,,,,,,,,,,3s,1358.2330191020155,1359.2330466120038,1359.224664762034,None,1360.2246749830665,1362.5413453860674,1360.2246749830665,1362.5413453860674,1362.5331011270173,None,1362.5331011270173,None,space,0.3588215650524944,1362.5331011270173,None,2.3025,1363.0235061000567,None,,,,,,,DEC018,001,2022_Nov_04_1511,2-25_cond_decay_EYE-try,2021.2.3,120.0197648768356,
right,1.0,0.75,0,2,0,2,0,1,0,1,0,1,5,15,4,,,,,,,,,,,,,,,3s,1364.0831458331086,1365.083117111004,1365.0747857640963,None,1366.0747318750946,1367.1747469120892,1366.0747318750946,1367.1747469120892,1367.1664416380227,None,1367.1664416380227,None,space,0.950535133946687,1367.1664416380227,None,1.0989,1368.250097255106,None,,,,,,,DEC018,001,2022_Nov_04_1511,2-25_cond_decay_EYE-try,2021.2.3,120.0197648768356,
left,1.0,0.75,1,2,0,2,0,1,0,1,0,1,6,16,2,,,,,,,,,,,,,,,3s,1369.3081920190016,1370.3081942910794,1370.2914467609953,None,1371.291511390009,1373.1164955090499,1371.291511390009,1373.1164955090499,1373.1164955090499,None,1373.1164955090499,None,space,0.34431165491696447,1373.1164955090499,None,1.8054,1373.5915981590515,None,,,,,,,DEC018,001,2022_Nov_04_1511,2-25_cond_decay_EYE-try,2021.2.3,120.0197648768356,
right,1.0,0.75,0,2,0,2,0,1,0,1,0,1,7,17,7,,,,,,,,,,,,,,,3s,1374.6499370740494,1375.649872176,1375.6415023190202,None,1376.64162157604,1377.2332359320717,1376.64162157604,1377.2332359320717,1377.2248678930337,1378.2249353320803,1377.2248678930337,1378.2249353320803,None,,1377.2248678930337,1378.2249353320803,0.5904,1378.358265357092,None,,,,,,,DEC018,001,2022_Nov_04_1511,2-25_cond_decay_EYE-try,2021.2.3,120.0197648768356,
right,1.0,0.75,0,2,0,2,0,1,0,1,0,1,8,18,0,,,,,,,,,,,,,,,3s,1379.408232611022,1380.416632344015,1380.4082905960968,None,1381.3999631850747,1383.016574142035,1381.3999631850747,1383.016574142035,1383.0082514960086,None,1383.0082514960086,None,space,0.36957274202723056,1383.0082514960086,None,1.6126,1383.508226536098,None,,,,,,,DEC018,001,2022_Nov_04_1511,2-25_cond_decay_EYE-try,2021.2.3,120.0197648768356,
left,0.75,1.0,0,2,0,2,0,1,0,1,0,1,9,19,6,,,,,,,,,,,,,,,3s,1384.566586578032,1385.5749987890013,1385.5749987890013,None,1386.558279210003,1387.1582808300154,1386.558279210003,1387.1582808300154,1387.1499282880686,1388.1500526110176,1387.1499282880686,1388.1500526110176,None,,1387.1499282880686,1388.1500526110176,0.5936,1388.3250807709992,None,,,,,,,DEC018,001,2022_Nov_04_1511,2-25_cond_decay_EYE-try,2021.2.3,120.0197648768356,
,,,,2,0,2,0,1,0,1,0,,,,,,,,,,,,,,,,,,,,,,,,,,,,,,,,,,,,,,,,,,,,,DEC018,001,2022_Nov_04_1511,2-25_cond_decay_EYE-try,2021.2.3,120.0197648768356,
left,0.75,1.0,0,2,0,2,0,2,0,2,0,0,0,0,3,,,,,,,,,1389.191650823108,None,1389.191650823108,None,1389.191650823108,None,10s,1396.7000426161103,1397.7084873321,1397.7001256890362,None,1398.6917425530264,1402.2917771140346,1398.6917425530264,1402.2917771140346,1402.2834893610561,None,1402.2834893610561,None,space,0.9694461839972064,1402.2834893610561,None,3.5961,1403.3918621120974,None,,,,,,,DEC018,001,2022_Nov_04_1511,2-25_cond_decay_EYE-try,2021.2.3,120.0197648768356,
left,1.0,0.75,1,2,0,2,0,2,0,2,0,0,1,1,5,,,,,,,,,,,,,,,10s,1404.4334762640065,1405.4335636550095,1405.4251877580537,None,1406.4251414990285,1410.3252806930104,1406.4251414990285,1410.3252806930104,1410.3252806930104,None,1410.3252806930104,None,space,0.6087701679207385,1410.3252806930104,None,3.8832,1411.0656762029976,None,,,,,,,DEC018,001,2022_Nov_04_1511,2-25_cond_decay_EYE-try,2021.2.3,120.0197648768356,
left,0.75,1.0,0,2,0,2,0,2,0,2,0,0,2,2,9,,,,,,,,,,,,,,,10s,1412.1323168610688,1413.1336382570444,1413.1169459740631,None,1414.1168946430553,1414.6419011780526,1414.1168946430553,1414.6419011780526,1414.6419011780526,None,1414.6419011780526,None,space,0.6110308719798923,1414.6419011780526,None,0.518,1415.3836678140797,None,,,,,,,DEC018,001,2022_Nov_04_1511,2-25_cond_decay_EYE-try,2021.2.3,120.0197648768356,
left,0.75,1.0,0,2,0,2,0,2,0,2,0,0,3,3,8,,,,,,,,,,,,,,,10s,1416.4407317310106,1417.4419947040733,1417.425312721054,None,1418.4252809960162,1426.775359158055,1418.4252809960162,1426.775359158055,1426.7670517180813,1427.767095811083,1426.7670517180813,1427.767095811083,None,,1426.7670517180813,1427.767095811083,8.3431,1427.9004298000364,None,,,,,,,DEC018,001,2022_Nov_04_1511,2-25_cond_decay_EYE-try,2021.2.3,120.0197648768356,
right,1.0,0.75,0,2,0,2,0,2,0,2,0,0,4,4,4,,,,,,,,,,,,,,,10s,1428.9588191610528,1429.9587478371104,1429.9504782470176,None,1430.958818531013,1437.550534375012,1430.958818531013,1437.550534375012,1437.5255058150506,1438.5255669080652,1437.5255058150506,1438.5255669080652,None,,1437.5255058150506,1438.5255669080652,6.5784,1438.650593846105,None,,,,,,,DEC018,001,2022_Nov_04_1511,2-25_cond_decay_EYE-try,2021.2.3,120.0197648768356,
left,0.75,1.0,0,2,0,2,0,2,0,2,0,0,5,5,1,,,,,,,,,,,,,,,10s,1439.7172088180669,1440.717230433016,1440.7005393770523,None,1441.7005891930312,1443.1005199271021,1441.7005891930312,1443.1005199271021,1443.1005199271021,None,1443.1005199271021,None,space,0.8077294760150835,1443.1005199271021,None,1.3962,1444.0423557721078,None,,,,,,,DEC018,001,2022_Nov_04_1511,2-25_cond_decay_EYE-try,2021.2.3,120.0197648768356,
right,1.0,0.75,0,2,0,2,0,2,0,2,0,0,6,6,0,,,,,,,,,,,,,,,10s,1445.1076725070598,1446.1089396020398,1446.08388564107,None,1447.0839587860974,1455.8507030730834,1447.0839587860974,1455.8507030730834,1455.8507030730834,None,1455.8507030730834,None,space,0.34428083698730916,1455.8507030730834,None,8.7659,1456.3257715620566,None,,,,,,,DEC018,001,2022_Nov_04_1511,2-25_cond_decay_EYE-try,2021.2.3,120.0197648768356,
right,1.0,0.75,0,2,0,2,0,2,0,2,0,0,7,7,6,,,,,,,,,,,,,,,10s,1457.3744877160061,1458.3758046959992,1458.359045408084,None,1459.3590737980558,1461.717472834047,1459.3590737980558,1461.717472834047,1461.717472834047,None,1461.717472834047,None,space,0.35056469903793186,1461.717472834047,None,2.3526,1462.1995017430745,None,,,,,,,DEC018,001,2022_Nov_04_1511,2-25_cond_decay_EYE-try,2021.2.3,120.0197648768356,
left,0.75,1.0,0,2,0,2,0,2,0,2,0,0,8,8,2,,,,,,,,,,,,,,,10s,1463.2590599410469,1464.2591498401016,1464.2507320400327,None,1465.2508037240477,1469.8926976521034,1465.2508037240477,1469.8926976521034,1469.8926976521034,None,1469.8926976521034,None,space,0.37532786501105875,1469.8926976521034,None,4.6386,1470.3996249990305,None,,,,,,,DEC018,001,2022_Nov_04_1511,2-25_cond_decay_EYE-try,2021.2.3,120.0197648768356,
right,0.75,1.0,1,2,0,2,0,2,0,2,0,0,9,9,7,,,,,,,,,,,,,,,10s,1471.4591709790984,1472.4592313040048,1472.4425098290667,None,1473.4425863580545,1479.5009281730745,1473.4425863580545,1479.5009281730745,1479.5009281730745,None,1479.5009281730745,None,None,,1479.5009281730745,None,6.0543,1480.6259043640457,None,,,,,,,DEC018,001,2022_Nov_04_1511,2-25_cond_decay_EYE-try,2021.2.3,120.0197648768356,
right,0.75,1.0,1,2,0,2,0,2,0,2,0,1,0,10,7,,,,,,,,,,,,,,,10s,1481.6759994280292,1482.6760159370024,1482.6594023969956,None,1483.6593270041049,1491.0426934181014,1483.6593270041049,1491.0426934181014,1491.0426934181014,None,1491.0426934181014,None,space,0.3193299809936434,1491.0426934181014,None,7.3805,1491.4927038809983,None,,,,,,,DEC018,001,2022_Nov_04_1511,2-25_cond_decay_EYE-try,2021.2.3,120.0197648768356,
right,1.0,0.75,0,2,0,2,0,2,0,2,0,1,1,11,6,,,,,,,,,,,,,,,10s,1492.5498364820378,1493.5511637231102,1493.5427882450167,None,1494.534375075018,1497.2428356100572,1494.534375075018,1497.2428356100572,1497.2428356100572,None,1497.2428356100572,None,space,0.5277911929879338,1497.2428356100572,None,2.709,1497.9012187611079,None,,,,,,,DEC018,001,2022_Nov_04_1511,2-25_cond_decay_EYE-try,2021.2.3,120.0197648768356,
left,1.0,0.75,1,2,0,2,0,2,0,2,0,1,2,12,5,,,,,,,,,,,,,,,10s,1498.9582574090455,1499.9595329581061,1499.9427893920802,None,1500.9427940010792,1507.6346242360305,1500.9427940010792,1507.6346242360305,1507.6346242360305,None,1507.6346242360305,None,space,0.44093170994892716,1507.6346242360305,None,6.6893,1508.2083129760576,None,,,,,,,DEC018,001,2022_Nov_04_1511,2-25_cond_decay_EYE-try,2021.2.3,120.0197648768356,
left,0.75,1.0,0,2,0,2,0,2,0,2,0,1,3,13,1,,,,,,,,,,,,,,,10s,1509.259635000024,1510.2596697270637,1510.2512023700401,None,1511.2513314461103,1517.693027822068,1511.2513314461103,1517.693027822068,1517.6846398590133,None,1517.6846398590133,None,space,0.6528895810479298,1517.6846398590133,None,6.4371,1518.4681110261008,None,,,,,,,DEC018,001,2022_Nov_04_1511,2-25_cond_decay_EYE-try,2021.2.3,120.0197648768356,
left,0.75,1.0,0,2,0,2,0,2,0,2,0,1,4,14,8,,,,,,,,,,,,,,,10s,1519.5179690150544,1520.5180592701072,1520.5096953620669,None,1521.5097348249983,1524.9097136600176,1521.5097348249983,1524.9097136600176,1524.9097136600176,None,1524.9097136600176,None,space,0.46935490297619253,1524.9097136600176,None,3.399,1525.5097989650676,None,,,,,,,DEC018,001,2022_Nov_04_1511,2-25_cond_decay_EYE-try,2021.2.3,120.0197648768356,
right,1.0,0.75,0,2,0,2,0,2,0,2,0,1,5,15,3,,,,,,,,,,,,,,,10s,1526.5681581470417,1527.5681436640443,1527.5514307341073,None,1528.5514070200734,1532.701573427068,1528.5514070200734,1532.701573427068,1532.701573427068,None,1532.701573427068,None,space,0.7778087130282074,1532.701573427068,None,4.1357,1533.6098912770394,None,,,,,,,DEC018,001,2022_Nov_04_1511,2-25_cond_decay_EYE-try,2021.2.3,120.0197648768356,
right,1.0,0.75,0,2,0,2,0,2,0,2,0,1,6,16,0,,,,,,,,,,,,,,,10s,1534.6598073480418,1535.659874901059,1535.651482795016,None,1536.651579030091,1541.9515668780077,1536.651579030091,1541.9515668780077,1541.9432408870198,None,1541.9432408870198,None,space,0.4776465949835256,1541.9432408870198,None,5.2935,1542.5517256810563,None,,,,,,,DEC018,001,2022_Nov_04_1511,2-25_cond_decay_EYE-try,2021.2.3,120.0197648768356,
left,0.75,1.0,0,2,0,2,0,2,0,2,0,1,7,17,9,,,,,,,,,,,,,,,10s,1543.6099205251085,1544.626594685018,1544.618301622104,None,1545.601654177066,1553.5934079660801,1545.601654177066,1553.5934079660801,1553.5837573870085,None,1553.5837573870085,None,space,0.36237858701497316,1553.5837573870085,None,7.9601,1554.0767507000128,None,,,,,,,DEC018,001,2022_Nov_04_1511,2-25_cond_decay_EYE-try,2021.2.3,120.0197648768356,
right,1.0,0.75,0,2,0,2,0,2,0,2,0,1,8,18,4,,,,,,,,,,,,,,,10s,1555.1267245580675,1556.1267078430392,1556.1267078430392,None,1557.1100246070419,1562.3102110520704,1557.1100246070419,1562.3102110520704,1562.3102110520704,1563.3101751150098,1562.3102110520704,1563.3101751150098,None,,1562.3102110520704,1563.3101751150098,5.1964,1563.4518176250858,None,,,,,,,DEC018,001,2022_Nov_04_1511,2-25_cond_decay_EYE-try,2021.2.3,120.0197648768356,
left,0.75,1.0,0,2,0,2,0,2,0,2,0,1,9,19,2,,,,,,,,,,,,,,,10s,1564.5102013050346,1565.5102160370443,1565.5017807401018,None,1566.501788360998,1573.9519447350176,1566.501788360998,1573.9519447350176,1573.9519447350176,None,1573.9519447350176,None,None,,1573.9519447350176,None,7.4501,1575.075762410066,None,,,,,,,DEC018,001,2022_Nov_04_1511,2-25_cond_decay_EYE-try,2021.2.3,120.0197648768356,
,,,,2,0,2,0,2,0,2,0,,,,,,,,,,,,,,,,,,,,,,,,,,,,,,,,,,,,,,,,,,,,,DEC018,001,2022_Nov_04_1511,2-25_cond_decay_EYE-try,2021.2.3,120.0197648768356,
right,0.75,1.0,1,2,0,2,0,3,0,3,0,0,0,0,9,,,,,,,,,1575.9686581350397,None,1575.9686581350397,None,1575.9686581350397,None,5s,1577.5935766330222,1578.593703452032,1578.5853409140836,None,1579.5852666411083,1583.2103274550755,1579.5852666411083,1583.2103274550755,1583.2103274550755,None,1583.2103274550755,None,space,0.33653359895106405,1583.2103274550755,None,3.6224,1583.6841364951106,None,,,,,,,DEC018,001,2022_Nov_04_1511,2-25_cond_decay_EYE-try,2021.2.3,120.0197648768356,
left,0.75,1.0,0,2,0,2,0,3,0,3,0,0,1,1,3,,,,,,,,,,,,,,,5s,1584.7353843930177,1585.7354338690639,1585.7270551470574,None,1586.7270419090055,1591.427066904027,1586.7270419090055,1591.427066904027,1591.427066904027,None,1591.427066904027,None,space,0.48281008703634143,1591.427066904027,None,4.6993,1592.0425519320415,None,,,,,,,DEC018,001,2022_Nov_04_1511,2-25_cond_decay_EYE-try,2021.2.3,120.0197648768356,
right,1.0,0.75,0,2,0,2,0,3,0,3,0,0,2,2,5,,,,,,,,,,,,,,,5s,1593.1021475740708,1594.1021606021095,1594.093736648094,None,1595.110473782057,1597.3021756020607,1595.110473782057,1597.3021756020607,1597.2938507080544,None,1597.2938507080544,None,space,0.5411184089025483,1597.2938507080544,None,2.19,1597.9604798190994,None,,,,,,,DEC018,001,2022_Nov_04_1511,2-25_cond_decay_EYE-try,2021.2.3,120.0197648768356,
left,0.75,1.0,0,2,0,2,0,3,0,3,0,0,3,3,4,,,,,,,,,,,,,,,5s,1599.0188138220692,1600.0189363380196,1600.0105190670583,None,1601.0104850040516,1604.4856088950764,1601.0104850040516,1604.4856088950764,1604.4856088950764,None,1604.4856088950764,None,space,0.35044773400295526,1604.4856088950764,None,3.4738,1604.9689769720426,None,,,,,,,DEC018,001,2022_Nov_04_1511,2-25_cond_decay_EYE-try,2021.2.3,120.0197648768356,
right,0.75,1.0,1,2,0,2,0,3,0,3,0,0,4,4,7,,,,,,,,,,,,,,,5s,1606.0272063880693,1607.0273004110204,1607.0188967300346,None,1608.0189297670731,1612.118961669039,1608.0189297670731,1612.118961669039,1612.118961669039,None,1612.118961669039,None,space,0.35996130597777665,1612.118961669039,None,4.0988,1612.610780543997,None,,,,,,,DEC018,001,2022_Nov_04_1511,2-25_cond_decay_EYE-try,2021.2.3,120.0197648768356,
left,0.75,1.0,0,2,0,2,0,3,0,3,0,0,5,5,1,,,,,,,,,,,,,,,5s,1613.669053696096,1614.668956825044,1614.6607327100355,None,1615.6606385360938,1618.6606973430607,1615.6606385360938,1618.6606973430607,1618.6606973430607,None,1618.6606973430607,None,space,0.41612306400202215,1618.6606973430607,None,2.9968,1619.2094778850442,None,,,,,,,DEC018,001,2022_Nov_04_1511,2-25_cond_decay_EYE-try,2021.2.3,120.0197648768356,
right,1.0,0.75,0,2,0,2,0,3,0,3,0,0,6,6,0,,,,,,,,,,,,,,,5s,1620.2774371210253,1621.2774694140535,1621.2524843410356,None,1622.2523896330968,1624.2775065780152,1622.2523896330968,1624.2775065780152,1624.2775065780152,None,1624.2775065780152,None,space,0.45282703696284443,1624.2775065780152,None,2.0189,1624.8608669160167,None,,,,,,,DEC018,001,2022_Nov_04_1511,2-25_cond_decay_EYE-try,2021.2.3,120.0197648768356,
right,1.0,0.75,0,2,0,2,0,3,0,3,0,0,7,7,2,,,,,,,,,,,,,,,5s,1625.9108102800092,1626.910828000051,1626.9024276681012,None,1627.9025106270565,1628.0774491230259,1627.9025106270565,1628.0774491230259,1628.0774491230259,None,1628.0774491230259,None,None,,1628.0774491230259,None,0.1733,1629.2192224460887,None,,,,,,,DEC018,001,2022_Nov_04_1511,2-25_cond_decay_EYE-try,2021.2.3,120.0197648768356,
left,1.0,0.75,1,2,0,2,0,3,0,3,0,0,8,8,6,,,,,,,,,,,,,,,5s,1630.2608780520968,1631.2608886720845,1631.2524757800857,None,1632.2524982620962,1632.6774845500477,1632.2524982620962,1632.6774845500477,1632.6691648780834,None,1632.6691648780834,None,space,0.4862281830282882,1632.6691648780834,None,0.4228,1633.2858072730014,None,,,,,,,DEC018,001,2022_Nov_04_1511,2-25_cond_decay_EYE-try,2021.2.3,120.0197648768356,
right,1.0,0.75,0,2,0,2,0,3,0,3,0,0,9,9,8,,,,,,,,,,,,,,,5s,1634.352574198041,1635.3525709710084,1635.3525709710084,None,1636.3275645819958,1637.7359820550773,1636.3275645819958,1637.7359820550773,1637.7359820550773,None,1637.7359820550773,None,space,0.40254113206174225,1637.7359820550773,None,1.4032,1638.2692907199962,None,,,,,,,DEC018,001,2022_Nov_04_1511,2-25_cond_decay_EYE-try,2021.2.3,120.0197648768356,
left,0.75,1.0,0,2,0,2,0,3,0,3,0,1,0,10,4,,,,,,,,,,,,,,,5s,1639.31928380311,1640.3275742530823,1640.3193288780749,None,1641.3109358700458,1645.0693246880546,1641.3109358700458,1645.0693246880546,1645.0693246880546,None,1645.0693246880546,None,space,0.4159707200014964,1645.0693246880546,None,3.7547,1645.6110511530424,None,,,,,,,DEC018,001,2022_Nov_04_1511,2-25_cond_decay_EYE-try,2021.2.3,120.0197648768356,
left,0.75,1.0,0,2,0,2,0,3,0,3,0,1,1,11,9,,,,,,,,,,,,,,,5s,1646.6766031280858,1647.677714364021,1647.6609905679943,None,1648.6610327149974,1649.110984979081,1648.6610327149974,1649.110984979081,1649.110984979081,None,1649.110984979081,None,space,0.5590570489875972,1649.110984979081,None,0.4457,1649.8014743990498,None,,,,,,,DEC018,001,2022_Nov_04_1511,2-25_cond_decay_EYE-try,2021.2.3,120.0197648768356,
left,0.75,1.0,0,2,0,2,0,3,0,3,0,1,2,12,1,,,,,,,,,,,,,,,5s,1650.8527998439968,1651.8527543250239,1651.8443535590777,None,1652.8444325850578,1653.6014652340673,1652.8444325850578,1653.6014652340673,1653.5860531970393,None,1653.5860531970393,None,space,0.4193150270730257,1653.5860531970393,None,0.7485,1654.1362276510336,None,,,,,,,DEC018,001,2022_Nov_04_1511,2-25_cond_decay_EYE-try,2021.2.3,120.0197648768356,
right,1.0,0.75,0,2,0,2,0,3,0,3,0,1,3,13,5,,,,,,,,,,,,,,,5s,1655.1860509840772,1656.1860731960041,1656.1777347390307,None,1657.177785371081,1660.1445261799963,1657.177785371081,1660.1445261799963,1660.1445261799963,None,1660.1445261799963,None,space,0.34427102003246546,1660.1445261799963,None,2.9618,1660.6195540600456,None,,,,,,,DEC018,001,2022_Nov_04_1511,2-25_cond_decay_EYE-try,2021.2.3,120.0197648768356,
right,1.0,0.75,0,2,0,2,0,3,0,3,0,1,4,14,0,,,,,,,,,,,,,,,5s,1661.6778231530916,1662.6779210000532,1662.6611922150478,None,1663.6611304550897,1664.044484171085,1663.6611304550897,1664.044484171085,1664.0361862430582,None,1664.0361862430582,None,space,0.3744097389280796,1664.0361862430582,None,0.3793,1664.5445608050795,None,,,,,,,DEC018,001,2022_Nov_04_1511,2-25_cond_decay_EYE-try,2021.2.3,120.0197648768356,
right,1.0,0.75,0,2,0,2,0,3,0,3,0,1,5,15,8,,,,,,,,,,,,,,,5s,1665.602919114055,1666.602904538042,1666.5861855000257,None,1667.5861671520397,1669.7196270530112,1667.5861671520397,1669.7196270530112,1669.7196270530112,None,1669.7196270530112,None,space,0.30047956807538867,1669.7196270530112,None,2.128,1670.1516742960084,None,,,,,,,DEC018,001,2022_Nov_04_1511,2-25_cond_decay_EYE-try,2021.2.3,120.0197648768356,
right,0.75,1.0,1,2,0,2,0,3,0,3,0,1,6,16,7,,,,,,,,,,,,,,,5s,1671.2030333960429,1672.2030541270506,1672.1945922910236,None,1673.194590165047,1676.9112733880756,1673.194590165047,1676.9112733880756,1676.9029558260227,1677.9030222400324,1676.9029558260227,1677.9030222400324,None,,1676.9029558260227,1677.9030222400324,3.7111,1678.0363556030206,None,,,,,,,DEC018,001,2022_Nov_04_1511,2-25_cond_decay_EYE-try,2021.2.3,120.0197648768356,
right,1.0,0.75,0,2,0,2,0,3,0,3,0,1,7,17,2,,,,,,,,,,,,,,,5s,1679.0863228770904,1680.0863586131018,1680.0780178910354,None,1681.0779994270997,1684.2280436080182,1681.0779994270997,1684.2280436080182,1684.219768106006,None,1684.219768106006,None,space,0.32800315401982516,1684.219768106006,None,3.146,1684.6780259740772,None,,,,,,,DEC018,001,2022_Nov_04_1511,2-25_cond_decay_EYE-try,2021.2.3,120.0197648768356,
