attn_cue,left_ob,right_ob,congruent,runs.thisRepN,runs.thisTrialN,runs.thisN,runs.thisIndex,blocks.thisRepN,blocks.thisTrialN,blocks.thisN,blocks.thisIndex,trials.thisRepN,trials.thisTrialN,trials.thisN,trials.thisIndex,welcome.started,welcome.stopped,text_2.started,text_2.stopped,init_key_resp.keys,init_key_resp.rt,init_key_resp.started,init_key_resp.stopped,text_3.started,text_3.stopped,text_4.started,text_4.stopped,text_5.started,text_5.stopped,block_num,texter.started,texter.stopped,cross.started,cross.stopped,left_star.started,left_star.stopped,right_star.started,right_star.stopped,left_2.started,left_2.stopped,right_2.started,right_2.stopped,key_resp.keys,key_resp.rt,key_resp.started,key_resp.stopped,Rand Tim,text.started,text.stopped,end.started,end.stopped,text_6.started,text_6.stopped,text_7.started,text_7.stopped,participant,session,date,expName,psychopyVersion,frameRate,
,,,,,,,,,,,,,,,,106.76870018299087,None,106.76870018299087,None,space,2.5132907179940958,106.76870018299087,None,,,,,,,,,,,,,,,,,,,,,,,,,,,,,,,,,DEC011,001,2022_Aug_09_0939,2-25_cond_decay_EYE-try,2021.2.3,None,
right,1.0,0.75,0,0,0,0,0,0,0,0,0,0,0,0,6,,,,,,,,,109.31185779299994,None,109.31185779299994,None,109.31185779299994,None,10s,111.14890959000331,112.1477874090051,112.13652735299547,None,113.13639231800335,122.37330764399667,113.13639231800335,122.37330764399667,122.37330764399667,None,122.37330764399667,None,space,0.41277199900650885,122.37330764399667,None,9.2413,122.93047166800534,None,,,,,,,DEC011,001,2022_Aug_09_0939,2-25_cond_decay_EYE-try,2021.2.3,None,
left,0.75,1.0,0,0,0,0,0,0,0,0,0,0,1,1,7,,,,,,,,,,,,,,,10s,123.97813921399938,124.96985019899148,124.9649688310019,None,125.96544509299565,128.55388517599204,125.96544509299565,128.55388517599204,128.55388517599204,None,128.55388517599204,None,space,0.5200996619969374,128.55388517599204,None,2.5934,129.2033595679968,None,,,,,,,DEC011,001,2022_Aug_09_0939,2-25_cond_decay_EYE-try,2021.2.3,None,
right,1.0,0.75,0,0,0,0,0,0,0,0,0,0,2,2,4,,,,,,,,,,,,,,,10s,130.25794215699716,131.2563899240049,131.23728749199654,None,132.2391874629975,135.8733882939996,132.2391874629975,135.8733882939996,135.87864858299145,None,135.87864858299145,None,space,0.3633360889944015,135.87864858299145,None,3.638,136.37861792599142,None,,,,,,,DEC011,001,2022_Aug_09_0939,2-25_cond_decay_EYE-try,2021.2.3,None,
right,1.0,0.75,0,0,0,0,0,0,0,0,0,0,3,3,9,,,,,,,,,,,,,,,10s,137.43367333999777,138.43227903399384,138.40700328200182,None,139.4032753079955,141.6450860079931,139.4032753079955,141.6450860079931,141.65606251900317,None,141.65606251900317,None,space,0.4099266190023627,141.65606251900317,None,2.2492,142.19649427999684,None,,,,,,,DEC011,001,2022_Aug_09_0939,2-25_cond_decay_EYE-try,2021.2.3,None,
right,0.75,1.0,1,0,0,0,0,0,0,0,0,0,4,4,8,,,,,,,,,,,,,,,10s,143.25769481000316,144.25711359200068,144.23266540600162,None,145.23167241399642,150.97229533299105,145.23167241399642,150.97229533299105,150.97229533299105,None,150.97229533299105,None,space,0.5257414110092213,150.97229533299105,None,5.7433,151.6275871599937,None,,,,,,,DEC011,001,2022_Aug_09_0939,2-25_cond_decay_EYE-try,2021.2.3,None,
left,0.75,1.0,0,0,0,0,0,0,0,0,0,0,5,5,5,,,,,,,,,,,,,,,10s,152.679330251005,153.67419953999342,153.64548182100407,None,154.64935531499214,164.03773518699745,154.64935531499214,164.03773518699745,164.03773518699745,None,164.03773518699745,None,space,0.4042589960008627,164.03773518699745,None,9.3935,164.57800006600155,None,,,,,,,DEC011,001,2022_Aug_09_0939,2-25_cond_decay_EYE-try,2021.2.3,None,
right,1.0,0.75,0,0,0,0,0,0,0,0,0,0,6,6,3,,,,,,,,,,,,,,,10s,165.633791803004,166.63219249999383,166.61456794799597,None,167.61245015999884,170.2080498139985,167.61245015999884,170.2080498139985,170.21471587600536,None,170.21471587600536,None,space,0.4033379460015567,170.21471587600536,None,2.5979,170.74805372799165,None,,,,,,,DEC011,001,2022_Aug_09_0939,2-25_cond_decay_EYE-try,2021.2.3,None,
left,0.75,1.0,0,0,0,0,0,0,0,0,0,0,7,7,0,,,,,,,,,,,,,,,10s,171.8085219689965,172.8067477709992,172.77876436799124,None,173.78272910800297,179.60713307600236,173.78272910800297,179.60713307600236,179.60713307600236,None,179.60713307600236,None,space,0.3709737939934712,179.60713307600236,None,5.8227,180.11185949199717,None,,,,,,,DEC011,001,2022_Aug_09_0939,2-25_cond_decay_EYE-try,2021.2.3,None,
right,1.0,0.75,0,0,0,0,0,0,0,0,0,0,8,8,1,,,,,,,,,,,,,,,10s,181.17138518700085,182.16378018799878,182.14549188199453,None,183.1454015479976,192.17061367200222,183.1454015479976,192.17061367200222,192.183718011991,None,192.183718011991,None,space,0.3222711840062402,192.183718011991,None,9.0319,192.63824958499754,None,,,,,,,DEC011,001,2022_Aug_09_0939,2-25_cond_decay_EYE-try,2021.2.3,None,
left,0.75,1.0,0,0,0,0,0,0,0,0,0,0,9,9,2,,,,,,,,,,,,,,,10s,193.69933337299153,194.69859666199773,194.68072851499892,None,195.6789149940014,198.2799302600033,195.6789149940014,198.2799302600033,198.29108996399736,None,198.29108996399736,None,space,0.4309849309938727,198.29108996399736,None,2.61,198.85640322900144,None,,,,,,,DEC011,001,2022_Aug_09_0939,2-25_cond_decay_EYE-try,2021.2.3,None,
left,0.75,1.0,0,0,0,0,0,0,0,0,0,1,0,10,0,,,,,,,,,,,,,,,10s,199.91185400199902,200.90449655699194,200.89755876199342,None,201.89742631299305,207.74015753999993,201.89742631299305,207.74015753999993,207.74601006800367,None,207.74601006800367,None,space,0.38399557600496337,207.74601006800367,None,5.8492,208.2631866409938,None,,,,,,,DEC011,001,2022_Aug_09_0939,2-25_cond_decay_EYE-try,2021.2.3,None,
right,0.75,1.0,1,0,0,0,0,0,0,0,0,1,1,11,8,,,,,,,,,,,,,,,10s,209.3216712919966,210.31627138900512,210.2969781080028,None,211.29732228600187,213.90447651900467,211.29732228600187,213.90447651900467,213.91633169799752,None,213.91633169799752,None,space,0.4777404509950429,213.91633169799752,None,2.6134,214.5236418699933,None,,,,,,,DEC011,001,2022_Aug_09_0939,2-25_cond_decay_EYE-try,2021.2.3,None,
right,1.0,0.75,0,0,0,0,0,0,0,0,0,1,2,12,9,,,,,,,,,,,,,,,10s,215.5793286410044,216.57218304800335,216.55855949700344,None,217.55808117399283,222.52975359300035,217.55808117399283,222.52975359300035,222.5403796729952,None,222.5403796729952,None,space,0.2936135269992519,222.5403796729952,None,4.981,222.97097559800022,None,,,,,,,DEC011,001,2022_Aug_09_0939,2-25_cond_decay_EYE-try,2021.2.3,None,
right,1.0,0.75,0,0,0,0,0,0,0,0,0,1,3,13,4,,,,,,,,,,,,,,,10s,224.02630390500417,225.02390745899174,225.00712951799505,None,225.9960967270017,229.6050202339975,225.9960967270017,229.6050202339975,229.62410445099522,None,229.62410445099522,None,space,0.28998593700816855,229.62410445099522,None,3.6179,230.04618614500214,None,,,,,,,DEC011,001,2022_Aug_09_0939,2-25_cond_decay_EYE-try,2021.2.3,None,
left,0.75,1.0,0,0,0,0,0,0,0,0,0,1,4,14,7,,,,,,,,,,,,,,,10s,231.1050896509987,232.0960031499999,232.07996977100265,None,233.08021690799796,240.438030417994,233.08021690799796,240.438030417994,240.44912897900213,None,240.44912897900213,None,space,0.32893859400064684,240.44912897900213,None,7.3626,240.9106061479979,None,,,,,,,DEC011,001,2022_Aug_09_0939,2-25_cond_decay_EYE-try,2021.2.3,None,
left,0.75,1.0,0,0,0,0,0,0,0,0,0,1,5,15,2,,,,,,,,,,,,,,,10s,241.96355341099843,242.95781890599756,242.94077141099842,None,243.93831054099428,246.20479254999373,243.93831054099428,246.20479254999373,246.2128070799954,None,246.2128070799954,None,space,0.46120826101105195,246.2128070799954,None,2.2742,246.8021249769954,None,,,,,,,DEC011,001,2022_Aug_09_0939,2-25_cond_decay_EYE-try,2021.2.3,None,
left,0.75,1.0,0,0,0,0,0,0,0,0,0,1,6,16,5,,,,,,,,,,,,,,,10s,247.8553757280024,248.84867567699985,248.82969350699568,None,249.8295416990004,254.93858629999158,249.8295416990004,254.93858629999158,254.94628412699967,None,254.94628412699967,None,space,0.3517168950056657,254.94628412699967,None,5.1204,255.43024029200024,None,,,,,,,DEC011,001,2022_Aug_09_0939,2-25_cond_decay_EYE-try,2021.2.3,None,
right,1.0,0.75,0,0,0,0,0,0,0,0,0,1,7,17,3,,,,,,,,,,,,,,,10s,256.48655099199095,257.47966527599783,257.45513837999897,None,258.45451091100404,266.2677219899924,258.45451091100404,266.2677219899924,266.2744402959943,None,266.2744402959943,None,space,0.30361662099312525,266.2744402959943,None,7.8181,266.71041348700237,None,,,,,,,DEC011,001,2022_Aug_09_0939,2-25_cond_decay_EYE-try,2021.2.3,None,
left,1.0,0.75,1,0,0,0,0,0,0,0,0,1,8,18,6,,,,,,,,,,,,,,,10s,267.76499909200356,268.7632409789949,268.73886535299243,None,269.738477492996,269.9335087280051,269.738477492996,269.9335087280051,269.9387873319938,None,269.9387873319938,None,None,,269.9387873319938,None,0.2008,271.06168606599385,None,,,,,,,DEC011,001,2022_Aug_09_0939,2-25_cond_decay_EYE-try,2021.2.3,None,
right,1.0,0.75,0,0,0,0,0,0,0,0,0,1,9,19,1,,,,,,,,,,,,,,,10s,272.11343808699166,273.1048043280025,273.09064099499665,None,274.09044183300284,279.8009164219984,274.09044183300284,279.8009164219984,279.80735910800286,None,279.80735910800286,None,space,0.30671721599355806,279.80735910800286,None,5.7128,280.25538422599493,None,,,,,,,DEC011,001,2022_Aug_09_0939,2-25_cond_decay_EYE-try,2021.2.3,None,
,,,,0,0,0,0,0,0,0,0,,,,,,,,,,,,,,,,,,,,,,,,,,,,,,,,,,,,,,,,,,,,,DEC011,001,2022_Aug_09_0939,2-25_cond_decay_EYE-try,2021.2.3,None,
left,0.75,1.0,0,0,0,0,0,1,0,1,0,0,0,0,1,,,,,,,,,281.15283246799663,None,281.15283246799663,None,281.15283246799663,None,3s,283.3830737419921,284.38257218999206,284.3636670989945,None,285.36333678799565,287.67214842799876,285.36333678799565,287.67214842799876,287.68002294100006,None,287.68002294100006,None,space,0.2500455910048913,287.68002294100006,None,2.3099,288.0617402039934,None,,,,,,,DEC011,001,2022_Aug_09_0939,2-25_cond_decay_EYE-try,2021.2.3,None,
left,0.75,1.0,0,0,0,0,0,1,0,1,0,0,1,1,7,,,,,,,,,,,,,,,3s,289.11421428799804,290.1095494769979,290.0802943400049,None,291.09031278100156,292.2242719019996,291.09031278100156,292.2242719019996,292.2242719019996,None,292.2242719019996,None,space,0.3777401760016801,292.2242719019996,None,1.1375,292.7347401379957,None,,,,,,,DEC011,001,2022_Aug_09_0939,2-25_cond_decay_EYE-try,2021.2.3,None,
right,1.0,0.75,0,0,0,0,0,1,0,1,0,0,2,2,3,,,,,,,,,,,,,,,3s,293.79729346999375,294.78825420999783,294.77512840999407,None,295.7750669800007,296.84700830800284,295.7750669800007,296.84700830800284,296.85561895900173,None,296.85561895900173,None,space,0.25045483199937735,296.85561895900173,None,1.0792,297.2372431889962,None,,,,,,,DEC011,001,2022_Aug_09_0939,2-25_cond_decay_EYE-try,2021.2.3,None,
right,0.75,1.0,1,0,0,0,0,1,0,1,0,0,3,3,0,,,,,,,,,,,,,,,3s,298.29243148899695,299.2886392609944,299.2673289779923,None,300.2661969680048,302.89701748799416,300.2661969680048,302.89701748799416,302.90922779700486,None,302.90922779700486,None,space,0.268783561012242,302.90922779700486,None,2.6361,303.31008612399455,None,,,,,,,DEC011,001,2022_Aug_09_0939,2-25_cond_decay_EYE-try,2021.2.3,None,
right,1.0,0.75,0,0,0,0,0,1,0,1,0,0,4,4,9,,,,,,,,,,,,,,,3s,304.3636600239988,305.3552096880012,305.3385150059912,None,306.33872639699257,308.89156709899544,306.33872639699257,308.89156709899544,308.8980816080002,None,308.8980816080002,None,space,0.2719289450033102,308.8980816080002,None,2.5551,309.30402586600394,None,,,,,,,DEC011,001,2022_Aug_09_0939,2-25_cond_decay_EYE-try,2021.2.3,None,
right,1.0,0.75,0,0,0,0,0,1,0,1,0,0,5,5,2,,,,,,,,,,,,,,,3s,310.3553904349974,311.3469448770047,311.33320311400166,None,312.33323277599993,314.9826401099999,312.33323277599993,314.9826401099999,314.9826401099999,None,314.9826401099999,None,space,0.29937575600342825,314.9826401099999,None,2.6546,315.4192276800022,None,,,,,,,DEC011,001,2022_Aug_09_0939,2-25_cond_decay_EYE-try,2021.2.3,None,
right,1.0,0.75,0,0,0,0,0,1,0,1,0,0,6,6,8,,,,,,,,,,,,,,,3s,316.4724347099982,317.46613623599114,317.4474639580003,None,318.4473716569919,320.1997492579976,318.4473716569919,320.1997492579976,320.20534508599667,None,320.20534508599667,None,space,0.2926740120019531,320.20534508599667,None,1.7567,320.63156811200315,None,,,,,,,DEC011,001,2022_Aug_09_0939,2-25_cond_decay_EYE-try,2021.2.3,None,
left,1.0,0.75,1,0,0,0,0,1,0,1,0,0,7,7,5,,,,,,,,,,,,,,,3s,321.6915621139924,322.6889349109988,322.66717935899214,None,323.6662877130002,324.5219751190016,323.6662877130002,324.5219751190016,324.5320286759961,None,324.5320286759961,None,space,0.45398630600539036,324.5320286759961,None,0.8604,325.122101009998,None,,,,,,,DEC011,001,2022_Aug_09_0939,2-25_cond_decay_EYE-try,2021.2.3,None,
left,0.75,1.0,0,0,0,0,0,1,0,1,0,0,8,8,6,,,,,,,,,,,,,,,3s,326.17226866800047,327.1638776549953,327.15031808099593,None,328.1507289239962,328.33904907800024,328.1507289239962,328.33904907800024,328.34678222300136,None,328.34678222300136,None,None,,328.34678222300136,None,0.1982,329.46094400799484,None,,,,,,,DEC011,001,2022_Aug_09_0939,2-25_cond_decay_EYE-try,2021.2.3,None,
left,0.75,1.0,0,0,0,0,0,1,0,1,0,0,9,9,4,,,,,,,,,,,,,,,3s,330.51045319800323,331.50793630900444,331.49210836700513,None,332.49126926799363,333.5144894719997,332.49126926799363,333.5144894719997,333.52205051199417,None,333.52205051199417,None,space,0.27196411999466363,333.52205051199417,None,1.0302,333.93101205099083,None,,,,,,,DEC011,001,2022_Aug_09_0939,2-25_cond_decay_EYE-try,2021.2.3,None,
left,1.0,0.75,1,0,0,0,0,1,0,1,0,1,0,10,5,,,,,,,,,,,,,,,3s,334.9812883470004,335.97608461999334,335.9583281529922,None,336.9556933959975,338.3152177059965,336.9556933959975,338.3152177059965,338.3152177059965,None,338.3152177059965,None,space,0.3748054850002518,338.3152177059965,None,1.3629,338.82269257100415,None,,,,,,,DEC011,001,2022_Aug_09_0939,2-25_cond_decay_EYE-try,2021.2.3,None,
right,1.0,0.75,0,0,0,0,0,1,0,1,0,1,1,11,2,,,,,,,,,,,,,,,3s,339.8853678559972,340.87377738299256,340.8677393879916,None,341.86521768799867,344.1639315929933,341.86521768799867,344.1639315929933,344.17591480800183,None,344.17591480800183,None,space,0.25810191899654455,344.17591480800183,None,2.3076,344.5700148229953,None,,,,,,,DEC011,001,2022_Aug_09_0939,2-25_cond_decay_EYE-try,2021.2.3,None,
right,1.0,0.75,0,0,0,0,0,1,0,1,0,1,2,12,8,,,,,,,,,,,,,,,3s,345.6186933499994,346.6172403200035,346.59281856600137,None,347.58878597400326,348.90763082000194,347.58878597400326,348.90763082000194,348.91420101099357,None,348.91420101099357,None,space,0.2718347730115056,348.91420101099357,None,1.3178,349.32182441299665,None,,,,,,,DEC011,001,2022_Aug_09_0939,2-25_cond_decay_EYE-try,2021.2.3,None,
right,1.0,0.75,0,0,0,0,0,1,0,1,0,1,3,13,9,,,,,,,,,,,,,,,3s,350.370729495,351.36427890699997,351.35616857100104,None,352.35239056999853,354.92622790399764,352.35239056999853,354.92622790399764,354.93380707799224,None,354.93380707799224,None,space,0.2922218210005667,354.93380707799224,None,2.5762,355.3646057279984,None,,,,,,,DEC011,001,2022_Aug_09_0939,2-25_cond_decay_EYE-try,2021.2.3,None,
left,0.75,1.0,0,0,0,0,0,1,0,1,0,1,4,14,1,,,,,,,,,,,,,,,3s,356.41403343199636,357.4061027639982,357.39357537499745,None,358.3814603179926,360.1402842200041,358.3814603179926,360.1402842200041,360.1559617610037,None,360.1559617610037,None,space,0.27005047599959653,360.1559617610037,None,1.7673,360.5585197140026,None,,,,,,,DEC011,001,2022_Aug_09_0939,2-25_cond_decay_EYE-try,2021.2.3,None,
left,0.75,1.0,0,0,0,0,0,1,0,1,0,1,5,15,4,,,,,,,,,,,,,,,3s,361.62969989499834,362.62445153700537,362.592473850993,None,363.5922784059949,365.63045535900164,363.5922784059949,365.63045535900164,365.63045535900164,None,365.63045535900164,None,space,0.3076385559979826,365.63045535900164,None,2.0459,366.0670486979943,None,,,,,,,DEC011,001,2022_Aug_09_0939,2-25_cond_decay_EYE-try,2021.2.3,None,
left,0.75,1.0,0,0,0,0,0,1,0,1,0,1,6,16,6,,,,,,,,,,,,,,,3s,367.12179207100417,368.1144560709945,368.107583695004,None,369.10730056899774,369.7560621159937,369.10730056899774,369.7560621159937,369.7560621159937,None,369.7560621159937,None,space,0.5179591460037045,369.7560621159937,None,0.6502,370.40691725400393,None,,,,,,,DEC011,001,2022_Aug_09_0939,2-25_cond_decay_EYE-try,2021.2.3,None,
left,0.75,1.0,0,0,0,0,0,1,0,1,0,1,7,17,7,,,,,,,,,,,,,,,3s,371.4608592069999,372.4588806160027,372.44292800499534,None,373.4488657089969,375.13912953999534,373.4488657089969,375.13912953999534,375.13912953999534,None,375.13912953999534,None,space,0.29496106099395547,375.13912953999534,None,1.6957,375.56499394599814,None,,,,,,,DEC011,001,2022_Aug_09_0939,2-25_cond_decay_EYE-try,2021.2.3,None,
right,0.75,1.0,1,0,0,0,0,1,0,1,0,1,8,18,0,,,,,,,,,,,,,,,3s,376.6184319259919,377.6170886320033,377.6065164699976,None,378.60597970899835,378.9977970070031,378.60597970899835,378.9977970070031,379.0064820879925,None,379.0064820879925,None,space,0.5155362580117071,379.0064820879925,None,0.4032,379.65482152400364,None,,,,,,,DEC011,001,2022_Aug_09_0939,2-25_cond_decay_EYE-try,2021.2.3,None,
right,1.0,0.75,0,0,0,0,0,1,0,1,0,1,9,19,3,,,,,,,,,,,,,,,3s,380.7093065109948,381.7071264959959,381.6844439819979,None,382.68325821899634,385.1919578649977,382.68325821899634,385.1919578649977,385.1974458699988,None,385.1974458699988,None,space,0.3406371750024846,385.1974458699988,None,2.5138,385.6669148700021,None,,,,,,,DEC011,001,2022_Aug_09_0939,2-25_cond_decay_EYE-try,2021.2.3,None,
,,,,0,0,0,0,1,0,1,0,,,,,,,,,,,,,,,,,,,,,,,,,,,,,,,,,,,,,,,,,,,,,DEC011,001,2022_Aug_09_0939,2-25_cond_decay_EYE-try,2021.2.3,None,
right,1.0,0.75,0,0,0,0,0,2,0,2,0,0,0,0,5,,,,,,,,,386.56365796799946,None,386.56365796799946,None,386.56365796799946,None,1s,388.59998228900076,389.6001697600004,389.59305376699194,None,390.58180167399405,391.15606384900457,390.58180167399405,391.15606384900457,391.16816391299653,None,391.16816391299653,None,space,0.29785631599952467,391.16816391299653,None,0.5798,391.60591260499496,None,,,,,,,DEC011,001,2022_Aug_09_0939,2-25_cond_decay_EYE-try,2021.2.3,None,
right,1.0,0.75,0,0,0,0,0,2,0,2,0,0,1,1,8,,,,,,,,,,,,,,,1s,392.65642848699645,393.64889834300266,393.6352613380004,None,394.63496523599315,395.50893184500455,394.63496523599315,395.50893184500455,395.50893184500455,None,395.50893184500455,None,space,0.25309958298748825,395.50893184500455,None,0.876,395.89078129499103,None,,,,,,,DEC011,001,2022_Aug_09_0939,2-25_cond_decay_EYE-try,2021.2.3,None,
right,0.75,1.0,1,0,0,0,0,2,0,2,0,0,2,2,6,,,,,,,,,,,,,,,1s,396.9393514209951,397.93099008999707,397.9064268380025,None,398.90880692099745,399.368609408004,398.90880692099745,399.368609408004,399.3753109649988,None,399.3753109649988,None,space,0.24270812200848013,399.3753109649988,None,0.4618,399.75140111599467,None,,,,,,,DEC011,001,2022_Aug_09_0939,2-25_cond_decay_EYE-try,2021.2.3,None,
left,0.75,1.0,0,0,0,0,0,2,0,2,0,0,3,3,9,,,,,,,,,,,,,,,1s,400.8124782300001,401.8060761509987,401.7927246420004,None,402.7919529189967,403.22327279500314,402.7919529189967,403.22327279500314,403.22327279500314,None,403.22327279500314,None,space,0.33075092399667483,403.22327279500314,None,0.4405,403.68461908500467,None,,,,,,,DEC011,001,2022_Aug_09_0939,2-25_cond_decay_EYE-try,2021.2.3,None,
right,1.0,0.75,0,0,0,0,0,2,0,2,0,0,4,4,4,,,,,,,,,,,,,,,1s,404.74582835099136,405.74422848399263,405.72657554199395,None,406.72493404000124,407.5933877609932,406.72493404000124,407.5933877609932,407.59989679600403,None,407.59989679600403,None,space,0.43421846300770994,407.59989679600403,None,0.8723,408.16385097299644,None,,,,,,,DEC011,001,2022_Aug_09_0939,2-25_cond_decay_EYE-try,2021.2.3,None,
left,1.0,0.75,1,0,0,0,0,2,0,2,0,0,5,5,1,,,,,,,,,,,,,,,1s,409.21770362899406,410.2147217400052,410.1987834659958,None,411.1998253789934,411.37356810699566,411.1998253789934,411.37356810699566,411.37356810699566,None,411.37356810699566,None,space,0.37245557400456164,411.37356810699566,None,0.1778,411.878526607994,None,,,,,,,DEC011,001,2022_Aug_09_0939,2-25_cond_decay_EYE-try,2021.2.3,None,
left,0.75,1.0,0,0,0,0,0,2,0,2,0,0,6,6,0,,,,,,,,,,,,,,,1s,412.9321390029945,413.92544812300184,413.9063887939992,None,414.9060588260036,415.14403903199127,414.9060588260036,415.14403903199127,415.15175614999316,None,415.15175614999316,None,space,0.29828628098766785,415.15175614999316,None,0.2374,415.58808454200334,None,,,,,,,DEC011,001,2022_Aug_09_0939,2-25_cond_decay_EYE-try,2021.2.3,None,
left,0.75,1.0,0,0,0,0,0,2,0,2,0,0,7,7,7,,,,,,,,,,,,,,,1s,416.640315867,417.63501981699665,417.6179709720018,None,418.615031940004,418.99771267599135,418.615031940004,418.99771267599135,419.00968947999354,None,419.00968947999354,None,space,0.3123575159988832,419.00968947999354,None,0.3919,419.4547331759968,None,,,,,,,DEC011,001,2022_Aug_09_0939,2-25_cond_decay_EYE-try,2021.2.3,None,
left,0.75,1.0,0,0,0,0,0,2,0,2,0,0,8,8,2,,,,,,,,,,,,,,,1s,420.5023988199973,421.5007069790008,421.49071292999724,None,422.4843703719962,423.19268126199313,422.4843703719962,423.19268126199313,423.1992068050022,None,423.1992068050022,None,space,0.2668914790119743,423.1992068050022,None,0.7112,423.5988698549918,None,,,,,,,DEC011,001,2022_Aug_09_0939,2-25_cond_decay_EYE-try,2021.2.3,None,
right,1.0,0.75,0,0,0,0,0,2,0,2,0,0,9,9,3,,,,,,,,,,,,,,,1s,424.65438826099853,425.64852511500067,425.63511976299924,None,426.63471869099885,427.09093883499736,426.63471869099885,427.09093883499736,427.09093883499736,None,427.09093883499736,None,space,0.3111391839920543,427.09093883499736,None,0.4625,427.5394961400016,None,,,,,,,DEC011,001,2022_Aug_09_0939,2-25_cond_decay_EYE-try,2021.2.3,None,
right,1.0,0.75,0,0,0,0,0,2,0,2,0,1,0,10,5,,,,,,,,,,,,,,,1s,428.5937459660054,429.5926666799933,429.57530429400504,None,430.5751679389941,431.1928010319971,430.5751679389941,431.1928010319971,431.19929747699643,None,431.19929747699643,None,space,0.2187349220039323,431.19929747699643,None,0.6237,431.5449539830006,None,,,,,,,DEC011,001,2022_Aug_09_0939,2-25_cond_decay_EYE-try,2021.2.3,None,
right,1.0,0.75,0,0,0,0,0,2,0,2,0,1,1,11,8,,,,,,,,,,,,,,,1s,432.5979769129917,433.5922391079948,433.5730891429994,None,434.57541270500224,435.0178826240008,434.57541270500224,435.0178826240008,435.0178826240008,None,435.0178826240008,None,space,0.2881521429953864,435.0178826240008,None,0.4489,435.4358406980027,None,,,,,,,DEC011,001,2022_Aug_09_0939,2-25_cond_decay_EYE-try,2021.2.3,None,
left,1.0,0.75,1,0,0,0,0,2,0,2,0,1,2,12,1,,,,,,,,,,,,,,,1s,436.4964828299999,437.4898757189949,437.4652899560024,None,438.4657247569994,438.8813607570046,438.4657247569994,438.8813607570046,438.8900496510032,None,438.8900496510032,None,space,0.3039805729931686,438.8900496510032,None,0.4235,439.3317753159936,None,,,,,,,DEC011,001,2022_Aug_09_0939,2-25_cond_decay_EYE-try,2021.2.3,None,
right,0.75,1.0,1,0,0,0,0,2,0,2,0,1,3,13,6,,,,,,,,,,,,,,,1s,440.3870101909997,441.38550238999596,441.36747067999386,None,442.36867663999146,442.9513627289998,442.36867663999146,442.9513627289998,442.9513627289998,None,442.9513627289998,None,space,0.3707439050049288,442.9513627289998,None,0.5879,443.4535057250032,None,,,,,,,DEC011,001,2022_Aug_09_0939,2-25_cond_decay_EYE-try,2021.2.3,None,
right,1.0,0.75,0,0,0,0,0,2,0,2,0,1,4,14,4,,,,,,,,,,,,,,,1s,444.50665278600354,445.5015561659966,445.4818300810002,None,446.4821574050002,447.32549703399127,446.4821574050002,447.32549703399127,447.332379614003,None,447.332379614003,None,space,0.29365073100780137,447.332379614003,None,0.8484,447.7627852470032,None,,,,,,,DEC011,001,2022_Aug_09_0939,2-25_cond_decay_EYE-try,2021.2.3,None,
left,0.75,1.0,0,0,0,0,0,2,0,2,0,1,5,15,0,,,,,,,,,,,,,,,1s,448.82409544600523,449.81542315200204,449.79812855800265,None,450.79838869899686,451.6763294410048,450.79838869899686,451.6763294410048,451.6818299739971,None,451.6818299739971,None,space,0.2882017670053756,451.6818299739971,None,0.8832,452.10247241999605,None,,,,,,,DEC011,001,2022_Aug_09_0939,2-25_cond_decay_EYE-try,2021.2.3,None,
left,0.75,1.0,0,0,0,0,0,2,0,2,0,1,6,16,2,,,,,,,,,,,,,,,1s,453.1572620490042,454.15030559500156,454.1444709350035,None,455.14529764700274,455.5905966540013,455.14529764700274,455.5905966540013,455.5905966540013,None,455.5905966540013,None,space,0.31543843299732544,455.5905966540013,None,0.4539,456.0352129450039,None,,,,,,,DEC011,001,2022_Aug_09_0939,2-25_cond_decay_EYE-try,2021.2.3,None,
left,0.75,1.0,0,0,0,0,0,2,0,2,0,1,7,17,9,,,,,,,,,,,,,,,1s,457.0958299829945,458.09029035399726,458.07627034399775,None,459.0773170350003,459.39314747200115,459.0773170350003,459.39314747200115,459.39314747200115,None,459.39314747200115,None,space,0.3528889890003484,459.39314747200115,None,0.3237,459.88217208499555,None,,,,,,,DEC011,001,2022_Aug_09_0939,2-25_cond_decay_EYE-try,2021.2.3,None,
right,1.0,0.75,0,0,0,0,0,2,0,2,0,1,8,18,3,,,,,,,,,,,,,,,1s,460.9450860990037,461.94317986299575,461.9262090359989,None,462.9237831740029,463.7734850029956,462.9237831740029,463.7734850029956,463.7856919719925,None,463.7856919719925,None,space,0.2723463490110589,463.7856919719925,None,0.8567,464.18683626399434,None,,,,,,,DEC011,001,2022_Aug_09_0939,2-25_cond_decay_EYE-try,2021.2.3,None,
left,0.75,1.0,0,0,0,0,0,2,0,2,0,1,9,19,7,,,,,,,,,,,,,,,1s,465.247507150998,466.2411288900039,466.22847757099953,None,467.2236703130038,467.4827151310019,467.2236703130038,467.4827151310019,467.4904161239974,None,467.4904161239974,None,space,0.35971419399720617,467.4904161239974,None,0.2676,467.9808104059921,None,,,,,,,DEC011,001,2022_Aug_09_0939,2-25_cond_decay_EYE-try,2021.2.3,None,
,,,,0,0,0,0,2,0,2,0,,,,,,,,,,,,,,,,,,,,,,,,,,,,,,,,,,,,,,,,,,,,,DEC011,001,2022_Aug_09_0939,2-25_cond_decay_EYE-try,2021.2.3,None,
right,0.75,1.0,1,0,0,0,0,3,0,3,0,0,0,0,9,,,,,,,,,468.87201809599355,None,468.87201809599355,None,468.87201809599355,None,5s,470.5633791470027,471.5606722700031,471.53237541299313,None,472.53296120899904,475.10699430300156,472.53296120899904,475.10699430300156,475.10699430300156,None,475.10699430300156,None,space,0.3911244499904569,475.10699430300156,None,2.5798,475.62931845999265,None,,,,,,,DEC011,001,2022_Aug_09_0939,2-25_cond_decay_EYE-try,2021.2.3,None,
left,1.0,0.75,1,0,0,0,0,3,0,3,0,0,1,1,8,,,,,,,,,,,,,,,5s,476.6784232929931,477.67659119100426,477.66611973999534,None,478.66608224199445,480.85234894299356,478.66608224199445,480.85234894299356,480.8577014939947,None,480.8577014939947,None,space,0.2883165329985786,480.8577014939947,None,2.1921,481.277833397995,None,,,,,,,DEC011,001,2022_Aug_09_0939,2-25_cond_decay_EYE-try,2021.2.3,None,
left,0.75,1.0,0,0,0,0,0,3,0,3,0,0,2,2,4,,,,,,,,,,,,,,,5s,482.3327229349961,483.3239582410024,483.302122263005,None,484.30706307600485,487.9861113259976,484.30706307600485,487.9861113259976,487.9861113259976,None,487.9861113259976,None,space,0.37591835399507545,487.9861113259976,None,3.6765,488.49543236500176,None,,,,,,,DEC011,001,2022_Aug_09_0939,2-25_cond_decay_EYE-try,2021.2.3,None,
left,0.75,1.0,0,0,0,0,0,3,0,3,0,0,3,3,7,,,,,,,,,,,,,,,5s,489.54915912100114,490.5429137549945,490.5245278479997,None,491.5258081170032,496.07427020699834,491.5258081170032,496.07427020699834,496.081927110994,None,496.081927110994,None,space,0.38410741800908,496.081927110994,None,4.5585,496.5994192969956,None,,,,,,,DEC011,001,2022_Aug_09_0939,2-25_cond_decay_EYE-try,2021.2.3,None,
right,1.0,0.75,0,0,0,0,0,3,0,3,0,0,4,4,2,,,,,,,,,,,,,,,5s,497.65970890999597,498.6598584619933,498.63259095499234,None,499.6324590639997,503.2278855629993,499.6324590639997,503.2278855629993,503.2346167450014,None,503.2346167450014,None,space,0.35142042800725903,503.2346167450014,None,3.5949,503.7197490969993,None,,,,,,,DEC011,001,2022_Aug_09_0939,2-25_cond_decay_EYE-try,2021.2.3,None,
left,0.75,1.0,0,0,0,0,0,3,0,3,0,0,5,5,6,,,,,,,,,,,,,,,5s,504.78033255999617,505.77374555400456,505.74895499700506,None,506.74891776099685,508.0517025500012,506.74891776099685,508.0517025500012,508.05723997799214,None,508.05723997799214,None,space,0.3208002960018348,508.05723997799214,None,1.3063,508.51345381099964,None,,,,,,,DEC011,001,2022_Aug_09_0939,2-25_cond_decay_EYE-try,2021.2.3,None,
right,0.75,1.0,1,0,0,0,0,3,0,3,0,0,6,6,0,,,,,,,,,,,,,,,5s,509.57477711499087,510.5662249140005,510.5490504670015,None,511.549134795001,514.2571459949977,511.549134795001,514.2571459949977,514.2571459949977,None,514.2571459949977,None,space,0.3368790429958608,514.2571459949977,None,2.7127,514.7316014429962,None,,,,,,,DEC011,001,2022_Aug_09_0939,2-25_cond_decay_EYE-try,2021.2.3,None,
right,1.0,0.75,0,0,0,0,0,3,0,3,0,0,7,7,1,,,,,,,,,,,,,,,5s,515.7827441440022,516.7747984549933,516.7604352609924,None,517.7624009639985,518.669464149003,517.7624009639985,518.669464149003,518.669464149003,None,518.669464149003,None,space,0.34856974199647084,518.669464149003,None,0.9062,519.1489842619922,None,,,,,,,DEC011,001,2022_Aug_09_0939,2-25_cond_decay_EYE-try,2021.2.3,None,
left,0.75,1.0,0,0,0,0,0,3,0,3,0,0,8,8,3,,,,,,,,,,,,,,,5s,520.2104619939928,521.2079187939962,521.1851673219935,None,522.1844917080016,526.9361809669936,522.1844917080016,526.9361809669936,526.9361809669936,None,526.9361809669936,None,space,0.3538553550024517,526.9361809669936,None,4.7526,527.4225616619951,None,,,,,,,DEC011,001,2022_Aug_09_0939,2-25_cond_decay_EYE-try,2021.2.3,None,
right,1.0,0.75,0,0,0,0,0,3,0,3,0,0,9,9,5,,,,,,,,,,,,,,,5s,528.4710931500013,529.4692087659932,529.4411984239996,None,530.4411903900036,531.9012862240052,530.4411903900036,531.9012862240052,531.9078919879976,None,531.9078919879976,None,space,0.38220953500422183,531.9078919879976,None,1.463,532.4229072529997,None,,,,,,,DEC011,001,2022_Aug_09_0939,2-25_cond_decay_EYE-try,2021.2.3,None,
right,1.0,0.75,0,0,0,0,0,3,0,3,0,1,0,10,9,,,,,,,,,,,,,,,5s,533.4747637580003,534.4693878239923,534.4515109679924,None,535.4531168959948,536.7682435989991,535.4531168959948,536.7682435989991,536.7682435989991,None,536.7682435989991,None,space,0.40179712099779863,536.7682435989991,None,1.3149,537.3074504719989,None,,,,,,,DEC011,001,2022_Aug_09_0939,2-25_cond_decay_EYE-try,2021.2.3,None,
right,0.75,1.0,1,0,0,0,0,3,0,3,0,1,1,11,0,,,,,,,,,,,,,,,5s,538.355710193995,539.3500544050039,539.3440269870043,None,540.3440797219955,544.4023839709989,540.3440797219955,544.4023839709989,544.4023839709989,None,544.4023839709989,None,space,0.4716557760111755,544.4023839709989,None,4.0584,545.0076312919991,None,,,,,,,DEC011,001,2022_Aug_09_0939,2-25_cond_decay_EYE-try,2021.2.3,None,
right,1.0,0.75,0,0,0,0,0,3,0,3,0,1,2,12,1,,,,,,,,,,,,,,,5s,546.0585508740041,547.0512176619959,547.032435828005,None,548.0328724279971,549.2085144619923,548.0328724279971,549.2085144619923,549.2085144619923,None,549.2085144619923,None,space,0.5056139829976019,549.2085144619923,None,1.1812,549.8462645879918,None,,,,,,,DEC011,001,2022_Aug_09_0939,2-25_cond_decay_EYE-try,2021.2.3,None,
left,1.0,0.75,1,0,0,0,0,3,0,3,0,1,3,13,8,,,,,,,,,,,,,,,5s,550.9013258679915,551.9001533559931,551.8747379489942,None,552.8749916340021,553.941158585003,552.8749916340021,553.941158585003,553.9500217669993,None,553.9500217669993,None,space,0.31609334600216243,553.9500217669993,None,1.074,554.3979398609954,None,,,,,,,DEC011,001,2022_Aug_09_0939,2-25_cond_decay_EYE-try,2021.2.3,None,
left,0.75,1.0,0,0,0,0,0,3,0,3,0,1,4,14,3,,,,,,,,,,,,,,,5s,555.4464348500042,556.4446435909922,556.4260391989956,None,557.4271624599933,558.2748406360042,557.4271624599933,558.2748406360042,558.2748406360042,None,558.2748406360042,None,space,0.3272880879958393,558.2748406360042,None,0.8581,558.7308391260012,None,,,,,,,DEC011,001,2022_Aug_09_0939,2-25_cond_decay_EYE-try,2021.2.3,None,
right,1.0,0.75,0,0,0,0,0,3,0,3,0,1,5,15,2,,,,,,,,,,,,,,,5s,559.7831406439946,560.7792082789965,560.7600626670028,None,561.7620512549911,563.3492892880022,561.7620512549911,563.3492892880022,563.3492892880022,None,563.3492892880022,None,space,0.3887495719973231,563.3492892880022,None,1.5951,563.8703706310043,None,,,,,,,DEC011,001,2022_Aug_09_0939,2-25_cond_decay_EYE-try,2021.2.3,None,
left,0.75,1.0,0,0,0,0,0,3,0,3,0,1,6,16,4,,,,,,,,,,,,,,,5s,564.9315007520054,565.9244598590012,565.9109703510039,None,566.9109006530052,570.9666581569909,566.9109006530052,570.9666581569909,570.9666581569909,None,570.9666581569909,None,space,0.3633949759969255,570.9666581569909,None,4.0645,571.4642760889983,None,,,,,,,DEC011,001,2022_Aug_09_0939,2-25_cond_decay_EYE-try,2021.2.3,None,
left,0.75,1.0,0,0,0,0,0,3,0,3,0,1,7,17,6,,,,,,,,,,,,,,,5s,572.5130569110042,573.5120966279937,573.5007984840049,None,574.5004843990027,578.9355990320037,574.5004843990027,578.9355990320037,578.9355990320037,None,578.9355990320037,None,space,0.38645848899614066,578.9355990320037,None,4.437,579.4578786229977,None,,,,,,,DEC011,001,2022_Aug_09_0939,2-25_cond_decay_EYE-try,2021.2.3,None,
right,1.0,0.75,0,0,0,0,0,3,0,3,0,1,8,18,5,,,,,,,,,,,,,,,5s,580.5166730929923,581.5120323839947,581.4945497059962,None,582.4944098190026,587.3003955159948,582.4944098190026,587.3003955159948,587.3114676709956,None,587.3114676709956,None,space,0.4185860209981911,587.3114676709956,None,4.8168,587.8639919319976,None,,,,,,,DEC011,001,2022_Aug_09_0939,2-25_cond_decay_EYE-try,2021.2.3,None,
left,0.75,1.0,0,0,0,0,0,3,0,3,0,1,9,19,7,,,,,,,,,,,,,,,5s,588.9247654380015,589.9190720109909,589.9000012969918,None,590.9003643799952,592.9005999899964,590.9003643799952,592.9005999899964,592.9116405289969,None,592.9116405289969,None,space,0.4024078090005787,592.9116405289969,None,2.0072,593.4525927950017,None,,,,,,,DEC011,001,2022_Aug_09_0939,2-25_cond_decay_EYE-try,2021.2.3,None,
,,,,0,0,0,0,3,0,3,0,,,,,,,,,,,,,,,,,,,,,,,,,,,,,,,,,,,,,,,,,,,,,DEC011,001,2022_Aug_09_0939,2-25_cond_decay_EYE-try,2021.2.3,None,
,,,,0,0,0,0,,,,,,,,,,,,,,,,,,,,,,,,,,,,,,,,,,,,,,,,,,,594.3489623509959,None,594.3489623509959,None,594.3489623509959,None,DEC011,001,2022_Aug_09_0939,2-25_cond_decay_EYE-try,2021.2.3,None,
left,0.75,1.0,0,1,0,1,0,0,0,0,0,0,0,0,3,,,,,,,,,599.3488811510033,None,599.3488811510033,None,599.3488811510033,None,5s,602.4505365730001,603.4444060569949,603.4338985240029,None,604.4334110030031,608.0254016219988,604.4334110030031,608.0254016219988,608.0254016219988,None,608.0254016219988,None,space,0.32872284299810417,608.0254016219988,None,3.5968,608.4833313919953,None,,,,,,,DEC011,001,2022_Aug_09_0939,2-25_cond_decay_EYE-try,2021.2.3,None,
left,0.75,1.0,0,1,0,1,0,0,0,0,0,0,1,1,1,,,,,,,,,,,,,,,5s,609.541972373001,610.5354055369971,610.5171702539956,None,611.5168378209928,612.9334263329947,611.5168378209928,612.9334263329947,612.9537063140015,None,612.9537063140015,None,space,0.3203337930026464,612.9537063140015,None,1.4295,613.4084755509975,None,,,,,,,DEC011,001,2022_Aug_09_0939,2-25_cond_decay_EYE-try,2021.2.3,None,
left,0.75,1.0,0,1,0,1,0,0,0,0,0,0,2,2,9,,,,,,,,,,,,,,,5s,614.4638039269921,615.4624893860018,615.4341314960038,None,616.4334903449926,617.8696037159971,616.4334903449926,617.8696037159971,617.8765743029944,None,617.8765743029944,None,space,0.3014851359912427,617.8765743029944,None,1.4393,618.3125461829914,None,,,,,,,DEC011,001,2022_Aug_09_0939,2-25_cond_decay_EYE-try,2021.2.3,None,
left,1.0,0.75,1,1,0,1,0,0,0,0,0,0,3,3,2,,,,,,,,,,,,,,,5s,619.3586545260041,620.3532675030001,620.3417601200053,None,621.341711836998,623.3608764319943,621.341711836998,623.3608764319943,623.3665067599941,None,623.3665067599941,None,space,0.2995333550061332,623.3665067599941,None,2.0282,623.7976225379971,None,,,,,,,DEC011,001,2022_Aug_09_0939,2-25_cond_decay_EYE-try,2021.2.3,None,
right,1.0,0.75,0,1,0,1,0,0,0,0,0,0,4,4,5,,,,,,,,,,,,,,,5s,624.8502756899979,625.8441831370001,625.8340424710041,None,626.8337120590004,631.2671191889967,626.8337120590004,631.2671191889967,631.2860373110016,None,631.2860373110016,None,space,0.2840176689933287,631.2860373110016,None,4.4441,631.7008264229953,None,,,,,,,DEC011,001,2022_Aug_09_0939,2-25_cond_decay_EYE-try,2021.2.3,None,
right,1.0,0.75,0,1,0,1,0,0,0,0,0,0,5,5,8,,,,,,,,,,,,,,,5s,632.7589998549956,633.7533502409933,633.733638079997,None,634.7292708189925,636.3587487890036,634.7292708189925,636.3587487890036,636.3673171870032,None,636.3673171870032,None,space,0.38678748700476717,636.3673171870032,None,1.6361,636.8820585630019,None,,,,,,,DEC011,001,2022_Aug_09_0939,2-25_cond_decay_EYE-try,2021.2.3,None,
right,0.75,1.0,1,1,0,1,0,0,0,0,0,0,6,6,4,,,,,,,,,,,,,,,5s,637.9342249149922,638.9290486399987,638.9108586490038,None,639.9100242019922,642.5090304049954,639.9100242019922,642.5090304049954,642.5292528489954,None,642.5292528489954,None,space,0.328906629991252,642.5292528489954,None,2.6119,642.9910460989922,None,,,,,,,DEC011,001,2022_Aug_09_0939,2-25_cond_decay_EYE-try,2021.2.3,None,
right,1.0,0.75,0,1,0,1,0,0,0,0,0,0,7,7,0,,,,,,,,,,,,,,,5s,644.0391618360009,645.0382880590041,645.0097094329976,None,646.0096125359996,650.091951964001,646.0096125359996,650.091951964001,650.1039521579951,None,650.1039521579951,None,space,0.34614270899328403,650.1039521579951,None,4.088,650.579081015996,None,,,,,,,DEC011,001,2022_Aug_09_0939,2-25_cond_decay_EYE-try,2021.2.3,None,
left,0.75,1.0,0,1,0,1,0,0,0,0,0,0,8,8,7,,,,,,,,,,,,,,,5s,651.6426452269952,652.6336269790045,652.6208220900007,None,653.6199178249954,654.641835204995,653.6199178249954,654.641835204995,654.664018645999,None,654.664018645999,None,space,0.4900286089978181,654.664018645999,None,1.0357,655.2928240890033,None,,,,,,,DEC011,001,2022_Aug_09_0939,2-25_cond_decay_EYE-try,2021.2.3,None,
left,0.75,1.0,0,1,0,1,0,0,0,0,0,0,9,9,6,,,,,,,,,,,,,,,5s,656.3479529719916,657.3425653400045,657.3180371210037,None,658.3179927780002,663.1753881100012,658.3179927780002,663.1753881100012,663.1838819090044,None,663.1838819090044,None,space,0.3142003789980663,663.1838819090044,None,4.867,663.6275808819919,None,,,,,,,DEC011,001,2022_Aug_09_0939,2-25_cond_decay_EYE-try,2021.2.3,None,
right,0.75,1.0,1,1,0,1,0,0,0,0,0,1,0,10,4,,,,,,,,,,,,,,,5s,664.6816710720013,665.6759903450002,665.6616901230009,None,666.6504299170047,668.5095995989977,666.6504299170047,668.5095995989977,668.5172047969972,None,668.5172047969972,None,space,0.37284940099925734,668.5172047969972,None,1.863,669.0211039510032,None,,,,,,,DEC011,001,2022_Aug_09_0939,2-25_cond_decay_EYE-try,2021.2.3,None,
left,0.75,1.0,0,1,0,1,0,0,0,0,0,1,1,11,7,,,,,,,,,,,,,,,5s,670.0842400300025,671.075415350002,671.061566681994,None,672.0624282589997,673.867134871005,672.0624282589997,673.867134871005,673.867134871005,None,673.867134871005,None,space,0.3350034110044362,673.867134871005,None,1.8072,674.3301133070054,None,,,,,,,DEC011,001,2022_Aug_09_0939,2-25_cond_decay_EYE-try,2021.2.3,None,
left,1.0,0.75,1,1,0,1,0,0,0,0,0,1,2,12,2,,,,,,,,,,,,,,,5s,675.3758669300005,676.3717414139974,676.3594135339954,None,677.359670506994,679.9355336949957,677.359670506994,679.9355336949957,679.9420756430045,None,679.9420756430045,None,space,0.31604988299659453,679.9420756430045,None,2.5822,680.3909829299955,None,,,,,,,DEC011,001,2022_Aug_09_0939,2-25_cond_decay_EYE-try,2021.2.3,None,
left,0.75,1.0,0,1,0,1,0,0,0,0,0,1,3,13,1,,,,,,,,,,,,,,,5s,681.4429665859934,682.4373684689926,682.4195640889957,None,683.4212271629949,687.4451614360005,683.4212271629949,687.4451614360005,687.4506660729967,None,687.4506660729967,None,space,0.3834664839960169,687.4506660729967,None,4.0344,687.9664718449931,None,,,,,,,DEC011,001,2022_Aug_09_0939,2-25_cond_decay_EYE-try,2021.2.3,None,
right,1.0,0.75,0,1,0,1,0,0,0,0,0,1,4,14,5,,,,,,,,,,,,,,,5s,689.0150874789979,690.0090233899973,689.9944922559953,None,690.9839708920044,692.528385550002,690.9839708920044,692.528385550002,692.5339330300048,None,692.5339330300048,None,space,0.43621262900705915,692.5339330300048,None,1.5463,693.099444337,None,,,,,,,DEC011,001,2022_Aug_09_0939,2-25_cond_decay_EYE-try,2021.2.3,None,
left,0.75,1.0,0,1,0,1,0,0,0,0,0,1,5,15,9,,,,,,,,,,,,,,,5s,694.1509139749978,695.1463963669958,695.1173148399976,None,696.1176059970021,699.4260724409978,696.1176059970021,699.4260724409978,699.4370531210006,None,699.4370531210006,None,space,0.3330974729906302,699.4370531210006,None,3.3124,699.8993816849979,None,,,,,,,DEC011,001,2022_Aug_09_0939,2-25_cond_decay_EYE-try,2021.2.3,None,
right,1.0,0.75,0,1,0,1,0,0,0,0,0,1,6,16,3,,,,,,,,,,,,,,,5s,700.9594100440008,701.9533623110037,701.9346806239919,None,702.9340790580027,705.3765386199957,702.9340790580027,705.3765386199957,705.3840864599915,None,705.3840864599915,None,space,0.32998747000237927,705.3840864599915,None,2.4514,705.8450742889981,None,,,,,,,DEC011,001,2022_Aug_09_0939,2-25_cond_decay_EYE-try,2021.2.3,None,
right,1.0,0.75,0,1,0,1,0,0,0,0,0,1,7,17,8,,,,,,,,,,,,,,,5s,706.8993800960016,707.8936672459968,707.8678711649991,None,708.868946497998,712.1760503480036,708.868946497998,712.1760503480036,712.1881802419957,None,712.1881802419957,None,space,0.3418899899988901,712.1881802419957,None,3.3154,712.6626272799913,None,,,,,,,DEC011,001,2022_Aug_09_0939,2-25_cond_decay_EYE-try,2021.2.3,None,
right,1.0,0.75,0,1,0,1,0,0,0,0,0,1,8,18,0,,,,,,,,,,,,,,,5s,713.7177118899999,714.7092192330019,714.7032687169994,None,715.7038543770032,717.3935130329919,715.7038543770032,717.3935130329919,717.3935130329919,None,717.3935130329919,None,space,0.34455441001045983,717.3935130329919,None,1.6939,717.8753517879959,None,,,,,,,DEC011,001,2022_Aug_09_0939,2-25_cond_decay_EYE-try,2021.2.3,None,
left,0.75,1.0,0,1,0,1,0,0,0,0,0,1,9,19,6,,,,,,,,,,,,,,,5s,718.935032473004,719.9259614780021,719.9099648340052,None,720.9095808589918,724.8932673759991,720.9095808589918,724.8932673759991,724.8932673759991,None,724.8932673759991,None,space,0.30886722200375516,724.8932673759991,None,3.9896,725.3351034599909,None,,,,,,,DEC011,001,2022_Aug_09_0939,2-25_cond_decay_EYE-try,2021.2.3,None,
,,,,1,0,1,0,0,0,0,0,,,,,,,,,,,,,,,,,,,,,,,,,,,,,,,,,,,,,,,,,,,,,DEC011,001,2022_Aug_09_0939,2-25_cond_decay_EYE-try,2021.2.3,None,
left,0.75,1.0,0,1,0,1,0,1,0,1,0,0,0,0,1,,,,,,,,,726.2260234809946,None,726.2260234809946,None,726.2260234809946,None,3s,727.4681364769931,728.4603440429928,728.443667332991,None,729.4437119170034,731.9766106960014,729.4437119170034,731.9766106960014,731.9766106960014,None,731.9766106960014,None,space,0.2894597039994551,731.9766106960014,None,2.5344,732.4013423699944,None,,,,,,,DEC011,001,2022_Aug_09_0939,2-25_cond_decay_EYE-try,2021.2.3,None,
left,0.75,1.0,0,1,0,1,0,1,0,1,0,0,1,1,6,,,,,,,,,,,,,,,3s,733.4500784819975,734.4433052579989,734.4372861839947,None,735.438019712994,737.0437382989912,735.438019712994,737.0437382989912,737.0437382989912,None,737.0437382989912,None,space,0.3663298049941659,737.0437382989912,None,1.61,737.541252488998,None,,,,,,,DEC011,001,2022_Aug_09_0939,2-25_cond_decay_EYE-try,2021.2.3,None,
left,0.75,1.0,0,1,0,1,0,1,0,1,0,0,2,2,0,,,,,,,,,,,,,,,3s,738.5963463340013,739.5932535059983,739.5697346959932,None,740.569845097998,741.3519612300006,740.569845097998,741.3519612300006,741.359771589996,None,741.359771589996,None,space,0.41829501699248794,741.359771589996,None,0.7874,741.9105109149968,None,,,,,,,DEC011,001,2022_Aug_09_0939,2-25_cond_decay_EYE-try,2021.2.3,None,
right,1.0,0.75,0,1,0,1,0,1,0,1,0,0,3,3,9,,,,,,,,,,,,,,,3s,742.9718025239999,743.970906129005,743.9467832099908,None,744.945850085991,746.793696141991,744.945850085991,746.793696141991,746.8014104600006,None,746.8014104600006,None,space,0.3766503869992448,746.8014104600006,None,1.8576,747.3165815130051,None,,,,,,,DEC011,001,2022_Aug_09_0939,2-25_cond_decay_EYE-try,2021.2.3,None,
right,0.75,1.0,1,1,0,1,0,1,0,1,0,0,4,4,5,,,,,,,,,,,,,,,3s,748.3719478400017,749.3682903260051,749.3533217039949,None,750.3516048989986,753.0688803730009,750.3516048989986,753.0688803730009,753.0688803730009,None,753.0688803730009,None,space,0.34926420799456537,753.0688803730009,None,2.7245,753.5474477029929,None,,,,,,,DEC011,001,2022_Aug_09_0939,2-25_cond_decay_EYE-try,2021.2.3,None,
left,0.75,1.0,0,1,0,1,0,1,0,1,0,0,5,5,7,,,,,,,,,,,,,,,3s,754.6082373419922,755.601783361999,755.5874676770036,None,756.5883033239952,759.4621548639989,756.5883033239952,759.4621548639989,759.4685453159909,None,759.4685453159909,None,space,0.3016012900043279,759.4685453159909,None,2.8833,759.8985148929933,None,,,,,,,DEC011,001,2022_Aug_09_0939,2-25_cond_decay_EYE-try,2021.2.3,None,
left,0.75,1.0,0,1,0,1,0,1,0,1,0,0,6,6,8,,,,,,,,,,,,,,,3s,760.9471625309961,761.9455271949992,761.9271883699985,None,762.9269062349922,765.7354878189944,762.9269062349922,765.7354878189944,765.7515838260006,None,765.7515838260006,None,space,0.2985747830098262,765.7515838260006,None,2.8149,766.1837207920034,None,,,,,,,DEC011,001,2022_Aug_09_0939,2-25_cond_decay_EYE-try,2021.2.3,None,
left,1.0,0.75,1,1,0,1,0,1,0,1,0,0,7,7,3,,,,,,,,,,,,,,,3s,767.2322704020044,768.2309437189979,768.2142371990049,None,769.2184417429962,769.7224059269938,769.2184417429962,769.7224059269938,769.7224059269938,None,769.7224059269938,None,space,0.5757900140015408,769.7224059269938,None,0.505,770.4348467870004,None,,,,,,,DEC011,001,2022_Aug_09_0939,2-25_cond_decay_EYE-try,2021.2.3,None,
right,1.0,0.75,0,1,0,1,0,1,0,1,0,0,8,8,4,,,,,,,,,,,,,,,3s,771.5023123540013,772.4972901389992,772.4856274880003,None,773.4847548550024,774.5465704029921,773.4847548550024,774.5465704029921,774.5530140939954,None,774.5530140939954,None,space,0.3610617490048753,774.5530140939954,None,1.0663,775.0500661769911,None,,,,,,,DEC011,001,2022_Aug_09_0939,2-25_cond_decay_EYE-try,2021.2.3,None,
right,1.0,0.75,0,1,0,1,0,1,0,1,0,0,9,9,2,,,,,,,,,,,,,,,3s,776.1021350049996,777.0973960400006,777.0783837000054,None,778.0784268379939,779.4973968319973,778.0784268379939,779.4973968319973,779.4973968319973,None,779.4973968319973,None,None,,779.4973968319973,None,1.4193,780.6184181999997,None,,,,,,,DEC011,001,2022_Aug_09_0939,2-25_cond_decay_EYE-try,2021.2.3,None,
right,0.75,1.0,1,1,0,1,0,1,0,1,0,1,0,10,5,,,,,,,,,,,,,,,3s,781.6745001179952,782.6683012370049,782.6541186800023,None,783.6440069529926,785.9024710029917,783.6440069529926,785.9024710029917,785.9024710029917,None,785.9024710029917,None,space,0.3555998020019615,785.9024710029917,None,2.2604,786.401140781003,None,,,,,,,DEC011,001,2022_Aug_09_0939,2-25_cond_decay_EYE-try,2021.2.3,None,
left,0.75,1.0,0,1,0,1,0,1,0,1,0,1,1,11,7,,,,,,,,,,,,,,,3s,787.450023020996,788.4438093439967,788.4191143859935,None,789.4190048970049,789.752434968992,789.4190048970049,789.752434968992,789.752434968992,None,789.752434968992,None,space,0.42562720300338697,789.752434968992,None,0.337,790.3169385119982,None,,,,,,,DEC011,001,2022_Aug_09_0939,2-25_cond_decay_EYE-try,2021.2.3,None,
right,1.0,0.75,0,1,0,1,0,1,0,1,0,1,2,12,9,,,,,,,,,,,,,,,3s,791.3771471939981,792.3710979659954,792.352070384004,None,793.3517360370024,794.3690329679957,793.3517360370024,794.3690329679957,794.3767502349947,None,794.3767502349947,None,space,0.32131733700225595,794.3767502349947,None,1.0238,794.8311956520047,None,,,,,,,DEC011,001,2022_Aug_09_0939,2-25_cond_decay_EYE-try,2021.2.3,None,
left,0.75,1.0,0,1,0,1,0,1,0,1,0,1,3,13,6,,,,,,,,,,,,,,,3s,795.8922683260025,796.8858763290045,796.8720811660023,None,797.8722007159959,798.9937357419985,797.8722007159959,798.9937357419985,799.0059569959994,None,799.0059569959994,None,space,0.30011802600347437,799.0059569959994,None,1.1318,799.4438853189931,None,,,,,,,DEC011,001,2022_Aug_09_0939,2-25_cond_decay_EYE-try,2021.2.3,None,
left,1.0,0.75,1,1,0,1,0,1,0,1,0,1,4,14,3,,,,,,,,,,,,,,,3s,800.4990250219998,801.4975304340041,801.4805428709951,None,802.4720580129942,803.0440715970035,802.4720580129942,803.0440715970035,803.0540214530047,None,803.0540214530047,None,space,0.3800516480114311,803.0540214530047,None,0.5756,803.5687034159928,None,,,,,,,DEC011,001,2022_Aug_09_0939,2-25_cond_decay_EYE-try,2021.2.3,None,
right,1.0,0.75,0,1,0,1,0,1,0,1,0,1,5,15,2,,,,,,,,,,,,,,,3s,804.6352498589986,805.6298091460048,805.6127880779968,None,806.6106100739999,809.0527718609956,806.6106100739999,809.0527718609956,809.060525370005,None,809.060525370005,None,space,0.28554974199505523,809.060525370005,None,2.4534,809.4775440020021,None,,,,,,,DEC011,001,2022_Aug_09_0939,2-25_cond_decay_EYE-try,2021.2.3,None,
left,0.75,1.0,0,1,0,1,0,1,0,1,0,1,6,16,0,,,,,,,,,,,,,,,3s,810.5439909569977,811.538832227001,811.5208438410045,None,812.5221582240047,813.2127511209983,812.5221582240047,813.2127511209983,813.2127511209983,None,813.2127511209983,None,None,,813.2127511209983,None,0.6924,814.3354269559932,None,,,,,,,DEC011,001,2022_Aug_09_0939,2-25_cond_decay_EYE-try,2021.2.3,None,
left,0.75,1.0,0,1,0,1,0,1,0,1,0,1,7,17,8,,,,,,,,,,,,,,,3s,815.3825766230002,816.3809657289967,816.3704175500025,None,817.3705261699943,818.5628211400035,817.3705261699943,818.5628211400035,818.5628211400035,None,818.5628211400035,None,space,0.3432671860064147,818.5628211400035,None,1.1939,819.0493479709985,None,,,,,,,DEC011,001,2022_Aug_09_0939,2-25_cond_decay_EYE-try,2021.2.3,None,
right,1.0,0.75,0,1,0,1,0,1,0,1,0,1,8,18,1,,,,,,,,,,,,,,,3s,820.1098872479924,821.1027991939918,821.0862290799996,None,822.0858219649963,823.0196024360048,822.0858219649963,823.0196024360048,823.0305329539988,None,823.0305329539988,None,space,0.31553311200696044,823.0305329539988,None,0.9428,823.4772920069954,None,,,,,,,DEC011,001,2022_Aug_09_0939,2-25_cond_decay_EYE-try,2021.2.3,None,
right,1.0,0.75,0,1,0,1,0,1,0,1,0,1,9,19,4,,,,,,,,,,,,,,,3s,824.5341245849995,825.5276393910026,825.5205653970042,None,826.5223834479984,826.7037333280023,826.5223834479984,826.7037333280023,826.7037333280023,827.6966340520012,826.7037333280023,827.6966340520012,None,,826.7037333280023,827.6966340520012,0.1855,827.8252750259999,None,,,,,,,DEC011,001,2022_Aug_09_0939,2-25_cond_decay_EYE-try,2021.2.3,None,
,,,,1,0,1,0,1,0,1,0,,,,,,,,,,,,,,,,,,,,,,,,,,,,,,,,,,,,,,,,,,,,,DEC011,001,2022_Aug_09_0939,2-25_cond_decay_EYE-try,2021.2.3,None,
right,1.0,0.75,0,1,0,1,0,2,0,2,0,0,0,0,5,,,,,,,,,828.715995229999,None,828.715995229999,None,828.715995229999,None,10s,830.9021620489948,831.8966742570046,831.8966742570046,None,832.8858260650013,833.7612340030028,832.8858260650013,833.7612340030028,833.7806077309942,None,833.7806077309942,None,space,0.38945655700808857,833.7806077309942,None,0.8864,834.3157523359987,None,,,,,,,DEC011,001,2022_Aug_09_0939,2-25_cond_decay_EYE-try,2021.2.3,None,
left,0.75,1.0,0,1,0,1,0,2,0,2,0,0,1,1,3,,,,,,,,,,,,,,,10s,835.3589751550026,836.352791569996,836.3446059370035,None,837.3459055989952,839.3814396779926,837.3459055989952,839.3814396779926,839.3891077459994,None,839.3891077459994,None,space,0.35697094499482773,839.3891077459994,None,2.0346,839.8855125010014,None,,,,,,,DEC011,001,2022_Aug_09_0939,2-25_cond_decay_EYE-try,2021.2.3,None,
right,1.0,0.75,0,1,0,1,0,2,0,2,0,0,2,2,6,,,,,,,,,,,,,,,10s,840.9344261649967,841.9277419179998,841.9194108630036,None,842.9220962889958,851.4374498300022,842.9220962889958,851.4374498300022,851.4474027129909,None,851.4474027129909,None,space,0.34666727799049113,851.4474027129909,None,8.5263,851.9221412920015,None,,,,,,,DEC011,001,2022_Aug_09_0939,2-25_cond_decay_EYE-try,2021.2.3,None,
left,1.0,0.75,1,1,0,1,0,2,0,2,0,0,3,3,4,,,,,,,,,,,,,,,10s,852.9858008309966,853.9814598079975,853.9644834939972,None,854.9697767930047,856.2607198659971,854.9697767930047,856.2607198659971,856.2607198659971,None,856.2607198659971,None,space,0.48536469200917054,856.2607198659971,None,1.3008,856.879143291997,None,,,,,,,DEC011,001,2022_Aug_09_0939,2-25_cond_decay_EYE-try,2021.2.3,None,
right,1.0,0.75,0,1,0,1,0,2,0,2,0,0,4,4,2,,,,,,,,,,,,,,,10s,857.9402730889997,858.939571793002,858.9196776930039,None,859.9196519289981,868.3198094379914,859.9196519289981,868.3198094379914,868.3198094379914,869.3144193189946,868.3198094379914,869.3144193189946,None,,868.3198094379914,869.3144193189946,8.4026,869.4446299150004,None,,,,,,,DEC011,001,2022_Aug_09_0939,2-25_cond_decay_EYE-try,2021.2.3,None,
right,1.0,0.75,0,1,0,1,0,2,0,2,0,0,5,5,1,,,,,,,,,,,,,,,10s,870.503233726995,871.4951516869914,871.4783151459997,None,872.4791128479992,881.430167404993,872.4791128479992,881.430167404993,881.4368771839945,None,881.4368771839945,None,space,0.3572716530034086,881.4368771839945,None,8.9575,881.927335860004,None,,,,,,,DEC011,001,2022_Aug_09_0939,2-25_cond_decay_EYE-try,2021.2.3,None,
left,0.75,1.0,0,1,0,1,0,2,0,2,0,0,6,6,8,,,,,,,,,,,,,,,10s,882.9861907239974,883.980700043001,883.961636506996,None,884.9614948439994,891.9862102530024,884.9614948439994,891.9862102530024,891.9862102530024,None,891.9862102530024,None,space,0.4239723599894205,891.9862102530024,None,7.0274,892.5451054809964,None,,,,,,,DEC011,001,2022_Aug_09_0939,2-25_cond_decay_EYE-try,2021.2.3,None,
right,0.75,1.0,1,1,0,1,0,2,0,2,0,0,7,7,0,,,,,,,,,,,,,,,10s,893.6029637140018,894.5989356060018,894.5803671390022,None,895.5865671630017,904.8467577279953,895.5865671630017,904.8467577279953,904.8467577279953,None,904.8467577279953,None,space,0.5793243720108876,904.8467577279953,None,9.2603,905.5633311089914,None,,,,,,,DEC011,001,2022_Aug_09_0939,2-25_cond_decay_EYE-try,2021.2.3,None,
left,0.75,1.0,0,1,0,1,0,2,0,2,0,0,8,8,9,,,,,,,,,,,,,,,10s,906.6188557440037,907.6124644439988,907.6062609609944,None,908.6061054989987,909.1197960209975,908.6061054989987,909.1197960209975,909.1279466639971,None,909.1279466639971,None,None,,909.1279466639971,None,0.5217,910.2455338930013,None,,,,,,,DEC011,001,2022_Aug_09_0939,2-25_cond_decay_EYE-try,2021.2.3,None,
left,0.75,1.0,0,1,0,1,0,2,0,2,0,0,9,9,7,,,,,,,,,,,,,,,10s,911.2949733449932,912.2891760749917,912.2726310089929,None,913.2722455219919,915.598439362002,913.2722455219919,915.598439362002,915.6062201750028,None,915.6062201750028,None,space,0.36386053399473894,915.6062201750028,None,2.3279,916.1031620739959,None,,,,,,,DEC011,001,2022_Aug_09_0939,2-25_cond_decay_EYE-try,2021.2.3,None,
right,1.0,0.75,0,1,0,1,0,2,0,2,0,1,0,10,1,,,,,,,,,,,,,,,10s,917.151354186004,918.1455873689993,918.1395022740035,None,919.1387810960005,921.8896777549962,919.1387810960005,921.8896777549962,921.8951607189956,None,921.8951607189956,None,space,0.31492546599474736,921.8951607189956,None,2.7561,922.339512681996,None,,,,,,,DEC011,001,2022_Aug_09_0939,2-25_cond_decay_EYE-try,2021.2.3,None,
left,0.75,1.0,0,1,0,1,0,2,0,2,0,1,1,11,7,,,,,,,,,,,,,,,10s,923.3999316949921,924.3986018019932,924.381444093,None,925.3793554699951,931.713280447002,925.3793554699951,931.713280447002,931.713280447002,None,931.713280447002,None,None,,931.713280447002,None,6.3362,932.8419189679989,None,,,,,,,DEC011,001,2022_Aug_09_0939,2-25_cond_decay_EYE-try,2021.2.3,None,
left,0.75,1.0,0,1,0,1,0,2,0,2,0,1,2,12,9,,,,,,,,,,,,,,,10s,933.8869349040033,934.8782480429945,934.8644169089966,None,935.864395904995,943.0655531270022,935.864395904995,943.0655531270022,943.072118954995,None,943.072118954995,None,None,,943.072118954995,None,7.2035,944.1786472209933,None,,,,,,,DEC011,001,2022_Aug_09_0939,2-25_cond_decay_EYE-try,2021.2.3,None,
right,1.0,0.75,0,1,0,1,0,2,0,2,0,1,3,13,5,,,,,,,,,,,,,,,10s,945.241982972002,946.240245271998,946.2214072189963,None,947.2240200200031,955.0825244029984,947.2240200200031,955.0825244029984,955.0825244029984,None,955.0825244029984,None,space,0.4395719750027638,955.0825244029984,None,7.8638,955.6604543629946,None,,,,,,,DEC011,001,2022_Aug_09_0939,2-25_cond_decay_EYE-try,2021.2.3,None,
right,1.0,0.75,0,1,0,1,0,2,0,2,0,1,4,14,2,,,,,,,,,,,,,,,10s,956.7087027130037,957.7070077700046,957.6956442869996,None,958.6959680220025,960.0040513139975,958.6959680220025,960.0040513139975,960.0119696659967,None,960.0119696659967,None,space,0.43822242099849973,960.0119696659967,None,1.3164,960.5811379749939,None,,,,,,,DEC011,001,2022_Aug_09_0939,2-25_cond_decay_EYE-try,2021.2.3,None,
left,0.75,1.0,0,1,0,1,0,2,0,2,0,1,5,15,8,,,,,,,,,,,,,,,10s,961.6455989829992,962.6398024630034,962.623962298996,None,963.6285140830005,968.0455380569911,963.6285140830005,968.0455380569911,968.0455380569911,None,968.0455380569911,None,space,0.380549189998419,968.0455380569911,None,4.4247,968.5625823139999,None,,,,,,,DEC011,001,2022_Aug_09_0939,2-25_cond_decay_EYE-try,2021.2.3,None,
left,1.0,0.75,1,1,0,1,0,2,0,2,0,1,6,16,4,,,,,,,,,,,,,,,10s,969.6116719889978,970.6043413610023,970.5981494369917,None,971.5979829050048,972.7376106619922,971.5979829050048,972.7376106619922,972.7376106619922,973.7287711679965,972.7376106619922,973.7287711679965,None,,972.7376106619922,973.7287711679965,1.1487,973.8708390590036,None,,,,,,,DEC011,001,2022_Aug_09_0939,2-25_cond_decay_EYE-try,2021.2.3,None,
right,1.0,0.75,0,1,0,1,0,2,0,2,0,1,7,17,6,,,,,,,,,,,,,,,10s,974.9264779899968,975.9251678029977,975.9064994799992,None,976.9068771820021,986.1127320660016,976.9068771820021,986.1127320660016,986.1203172469977,None,986.1203172469977,None,space,0.4098409040016122,986.1203172469977,None,9.2165,986.6659101410041,None,,,,,,,DEC011,001,2022_Aug_09_0939,2-25_cond_decay_EYE-try,2021.2.3,None,
left,0.75,1.0,0,1,0,1,0,2,0,2,0,1,8,18,3,,,,,,,,,,,,,,,10s,987.7207167189918,988.7126037489943,988.6899215580052,None,989.687396437992,994.0152394659963,989.687396437992,994.0152394659963,994.020791175004,None,994.020791175004,None,space,0.36540127800253686,994.020791175004,None,4.3278,994.5206759360008,None,,,,,,,DEC011,001,2022_Aug_09_0939,2-25_cond_decay_EYE-try,2021.2.3,None,
right,0.75,1.0,1,1,0,1,0,2,0,2,0,1,9,19,0,,,,,,,,,,,,,,,10s,995.5745850550011,996.5735639460036,996.5563946750044,None,997.5544272550032,1005.6957334189938,997.5544272550032,1005.6957334189938,1005.6957334189938,None,1005.6957334189938,None,space,0.3543610039923806,1005.6957334189938,None,8.1485,1006.1867278909922,None,,,,,,,DEC011,001,2022_Aug_09_0939,2-25_cond_decay_EYE-try,2021.2.3,None,
,,,,1,0,1,0,2,0,2,0,,,,,,,,,,,,,,,,,,,,,,,,,,,,,,,,,,,,,,,,,,,,,DEC011,001,2022_Aug_09_0939,2-25_cond_decay_EYE-try,2021.2.3,None,
right,1.0,0.75,0,1,0,1,0,3,0,3,0,0,0,0,7,,,,,,,,,1007.0780077749951,None,1007.0780077749951,None,1007.0780077749951,None,1s,1009.2466193159926,1010.2378403850016,1010.2231442530028,None,1011.2207925679977,1011.5484624639939,1011.2207925679977,1011.5484624639939,1011.5549326589971,None,1011.5549326589971,None,space,0.2871573209995404,1011.5549326589971,None,0.3318,1011.9741990859911,None,,,,,,,DEC011,001,2022_Aug_09_0939,2-25_cond_decay_EYE-try,2021.2.3,None,
right,0.75,1.0,1,1,0,1,0,3,0,3,0,0,1,1,1,,,,,,,,,,,,,,,1s,1013.028627806998,1014.0207083389978,1014.0207083389978,None,1015.0212796679989,1015.571275986993,1015.0212796679989,1015.571275986993,1015.5791283019935,None,1015.5791283019935,None,space,0.2709729069902096,1015.5791283019935,None,0.5627,1015.9863249850023,None,,,,,,,DEC011,001,2022_Aug_09_0939,2-25_cond_decay_EYE-try,2021.2.3,None,
right,1.0,0.75,0,1,0,1,0,3,0,3,0,0,2,2,9,,,,,,,,,,,,,,,1s,1017.0376199710008,1018.0293927629973,1018.0159499139991,None,1019.0152788870037,1019.7495875659952,1019.0152788870037,1019.7495875659952,1019.7495875659952,None,1019.7495875659952,None,space,0.2845073240023339,1019.7495875659952,None,0.7331,1020.1679745510046,None,,,,,,,DEC011,001,2022_Aug_09_0939,2-25_cond_decay_EYE-try,2021.2.3,None,
left,0.75,1.0,0,1,0,1,0,3,0,3,0,0,3,3,5,,,,,,,,,,,,,,,1s,1021.2295072999987,1022.2212967349915,1022.1989785180049,None,1023.1990578059922,1023.4993496060051,1023.1990578059922,1023.4993496060051,1023.504797378002,None,1023.504797378002,None,space,0.32930761799798347,1023.504797378002,None,0.3033,1023.9684836399974,None,,,,,,,DEC011,001,2022_Aug_09_0939,2-25_cond_decay_EYE-try,2021.2.3,None,
left,1.0,0.75,1,1,0,1,0,3,0,3,0,0,4,4,4,,,,,,,,,,,,,,,1s,1025.0216631920048,1026.0152314159932,1025.9981767940044,None,1026.9966234960011,1027.4813016919943,1026.9966234960011,1027.4813016919943,1027.4880803419946,None,1027.4880803419946,None,space,0.2581123099953402,1027.4880803419946,None,0.4891,1027.8769221169932,None,,,,,,,DEC011,001,2022_Aug_09_0939,2-25_cond_decay_EYE-try,2021.2.3,None,
left,0.75,1.0,0,1,0,1,0,3,0,3,0,0,5,5,8,,,,,,,,,,,,,,,1s,1028.9297730349936,1029.9254445069964,1029.907215209998,None,1030.907218976994,1031.439399141993,1030.907218976994,1031.439399141993,1031.439399141993,None,1031.439399141993,None,space,0.2747043369890889,1031.439399141993,None,0.5341,1031.8532288889983,None,,,,,,,DEC011,001,2022_Aug_09_0939,2-25_cond_decay_EYE-try,2021.2.3,None,
left,0.75,1.0,0,1,0,1,0,3,0,3,0,0,6,6,6,,,,,,,,,,,,,,,1s,1032.9045386119979,1033.8957935020007,1033.8821313569933,None,1034.8811086100031,1035.3545826619957,1034.8811086100031,1035.3545826619957,1035.3545826619957,None,1035.3545826619957,None,space,0.35950656300701667,1035.3545826619957,None,0.4758,1035.847070497999,None,,,,,,,DEC011,001,2022_Aug_09_0939,2-25_cond_decay_EYE-try,2021.2.3,None,
right,1.0,0.75,0,1,0,1,0,3,0,3,0,0,7,7,0,,,,,,,,,,,,,,,1s,1036.907471714003,1037.9049477789958,1037.8880553079944,None,1038.887547099992,1039.6571712519944,1038.887547099992,1039.6571712519944,1039.6629751869914,None,1039.6629751869914,None,space,0.29920923701138236,1039.6629751869914,None,0.7737,1040.095927856004,None,,,,,,,DEC011,001,2022_Aug_09_0939,2-25_cond_decay_EYE-try,2021.2.3,None,
left,0.75,1.0,0,1,0,1,0,3,0,3,0,0,8,8,3,,,,,,,,,,,,,,,1s,1041.1550655790052,1042.148906575996,1042.1320665739913,None,1043.1299506030045,1044.046635620005,1043.1299506030045,1044.046635620005,1044.057904575995,None,1044.057904575995,None,space,0.3202149790013209,1044.057904575995,None,0.9252,1044.5078155810043,None,,,,,,,DEC011,001,2022_Aug_09_0939,2-25_cond_decay_EYE-try,2021.2.3,None,
right,1.0,0.75,0,1,0,1,0,3,0,3,0,0,9,9,2,,,,,,,,,,,,,,,1s,1045.5684325360053,1046.5661099120043,1046.5419160119927,None,1047.537644060998,1048.209336091997,1047.537644060998,1048.209336091997,1048.2170685059973,None,1048.2170685059973,None,space,0.2811420869984431,1048.2170685059973,None,0.6732,1048.6282217349944,None,,,,,,,DEC011,001,2022_Aug_09_0939,2-25_cond_decay_EYE-try,2021.2.3,None,
right,0.75,1.0,1,1,0,1,0,3,0,3,0,1,0,10,1,,,,,,,,,,,,,,,1s,1049.6801895690005,1050.6711030180013,1050.6567562589917,None,1051.6569967200048,1052.3298637370026,1051.6569967200048,1052.3298637370026,1052.3298637370026,None,1052.3298637370026,None,space,0.28824049200920854,1052.3298637370026,None,0.6807,1052.7502926470042,None,,,,,,,DEC011,001,2022_Aug_09_0939,2-25_cond_decay_EYE-try,2021.2.3,None,
right,1.0,0.75,0,1,0,1,0,3,0,3,0,1,1,11,9,,,,,,,,,,,,,,,1s,1053.810012217,1054.8046213229973,1054.7899442769994,None,1055.7898847079923,1056.7558140219917,1055.7898847079923,1056.7558140219917,1056.7558140219917,None,1056.7558140219917,None,space,0.24628632099484093,1056.7558140219917,None,0.9682,1057.137922873997,None,,,,,,,DEC011,001,2022_Aug_09_0939,2-25_cond_decay_EYE-try,2021.2.3,None,
left,0.75,1.0,0,1,0,1,0,3,0,3,0,1,2,12,5,,,,,,,,,,,,,,,1s,1058.1856336030032,1059.1794768690015,1059.1672744550015,None,1060.1660074609972,1060.6581253789918,1060.1660074609972,1060.6581253789918,1060.6581253789918,None,1060.6581253789918,None,space,0.34399650899285916,1060.6581253789918,None,0.4954,1061.1317001569987,None,,,,,,,DEC011,001,2022_Aug_09_0939,2-25_cond_decay_EYE-try,2021.2.3,None,
left,0.75,1.0,0,1,0,1,0,3,0,3,0,1,3,13,8,,,,,,,,,,,,,,,1s,1062.185613950991,1063.180108007,1063.171445164,None,1064.165822579991,1065.040669644004,1064.165822579991,1065.040669644004,1065.040669644004,None,1065.040669644004,None,space,0.3294355340040056,1065.040669644004,None,0.876,1065.5006869659992,None,,,,,,,DEC011,001,2022_Aug_09_0939,2-25_cond_decay_EYE-try,2021.2.3,None,
right,1.0,0.75,0,1,0,1,0,3,0,3,0,1,4,14,2,,,,,,,,,,,,,,,1s,1066.5554161559994,1067.549754430991,1067.5311013669998,None,1068.530627450993,1069.4468696730037,1068.530627450993,1069.4468696730037,1069.4567824580008,None,1069.4567824580008,None,space,0.3053844740061322,1069.4567824580008,None,0.9249,1069.8946336959925,None,,,,,,,DEC011,001,2022_Aug_09_0939,2-25_cond_decay_EYE-try,2021.2.3,None,
left,0.75,1.0,0,1,0,1,0,3,0,3,0,1,5,15,3,,,,,,,,,,,,,,,1s,1070.9555350930023,1071.9496645259933,1071.9299478419998,None,1072.9310500199936,1073.8164913090004,1072.9310500199936,1073.8164913090004,1073.8164913090004,None,1073.8164913090004,None,space,0.3376253499882296,1073.8164913090004,None,0.8874,1074.2832993060001,None,,,,,,,DEC011,001,2022_Aug_09_0939,2-25_cond_decay_EYE-try,2021.2.3,None,
right,1.0,0.75,0,1,0,1,0,3,0,3,0,1,6,16,0,,,,,,,,,,,,,,,1s,1075.3466781180032,1076.3414831730042,1076.3299066829932,None,1077.3254854489933,1077.8633075469988,1077.3254854489933,1077.8633075469988,1077.8760913199949,None,1077.8760913199949,None,space,0.29411755099135917,1077.8760913199949,None,0.5444,1078.3008240369963,None,,,,,,,DEC011,001,2022_Aug_09_0939,2-25_cond_decay_EYE-try,2021.2.3,None,
left,0.75,1.0,0,1,0,1,0,3,0,3,0,1,7,17,6,,,,,,,,,,,,,,,1s,1079.3551882549946,1080.3464452670014,1080.3306124310038,None,1081.3300656139909,1082.1881661709922,1081.3300656139909,1082.1881661709922,1082.1967459580046,None,1082.1967459580046,None,space,0.23735705199942458,1082.1967459580046,None,0.8716,1082.5720473260008,None,,,,,,,DEC011,001,2022_Aug_09_0939,2-25_cond_decay_EYE-try,2021.2.3,None,
left,1.0,0.75,1,1,0,1,0,3,0,3,0,1,8,18,4,,,,,,,,,,,,,,,1s,1083.6302737049991,1084.6221523970016,1084.6085199609952,None,1085.6084669480042,1086.4890091449925,1085.6084669480042,1086.4890091449925,1086.4890091449925,None,1086.4890091449925,None,space,0.5530898120050551,1086.4890091449925,None,0.8852,1087.1792802230048,None,,,,,,,DEC011,001,2022_Aug_09_0939,2-25_cond_decay_EYE-try,2021.2.3,None,
right,1.0,0.75,0,1,0,1,0,3,0,3,0,1,9,19,7,,,,,,,,,,,,,,,1s,1088.2342818799953,1089.2336756269942,1089.213717983992,None,1090.2156736930046,1090.6136552539974,1090.2156736930046,1090.6136552539974,1090.6136552539974,1091.608368931993,1090.6136552539974,1091.608368931993,None,,1090.6136552539974,1091.608368931993,0.403,1091.7385420920036,None,,,,,,,DEC011,001,2022_Aug_09_0939,2-25_cond_decay_EYE-try,2021.2.3,None,
,,,,1,0,1,0,3,0,3,0,,,,,,,,,,,,,,,,,,,,,,,,,,,,,,,,,,,,,,,,,,,,,DEC011,001,2022_Aug_09_0939,2-25_cond_decay_EYE-try,2021.2.3,None,
,,,,1,0,1,0,,,,,,,,,,,,,,,,,,,,,,,,,,,,,,,,,,,,,,,,,,,1092.6283381529938,None,1092.6283381529938,None,1092.6283381529938,None,DEC011,001,2022_Aug_09_0939,2-25_cond_decay_EYE-try,2021.2.3,None,
left,0.75,1.0,0,2,0,2,0,0,0,0,0,0,0,0,2,,,,,,,,,1097.6308538299927,None,1097.6308538299927,None,1097.6308538299927,None,3s,1099.0709851870051,1100.0639096550003,1100.0580572399922,None,1101.057865002993,1103.904883049996,1101.057865002993,1103.904883049996,1103.904883049996,None,1103.904883049996,None,space,0.40929209800378885,1103.904883049996,None,2.8515,1104.4520874489972,None,,,,,,,DEC011,001,2022_Aug_09_0939,2-25_cond_decay_EYE-try,2021.2.3,None,
left,0.75,1.0,0,2,0,2,0,0,0,0,0,0,1,1,1,,,,,,,,,,,,,,,3s,1105.4966300240048,1106.4887081579946,1106.4743181189988,None,1107.4639120520005,1108.0551483799936,1107.4639120520005,1108.0551483799936,1108.0746030659939,None,1108.0746030659939,None,space,0.3355041879985947,1108.0746030659939,None,0.5991,1108.5468899749976,None,,,,,,,DEC011,001,2022_Aug_09_0939,2-25_cond_decay_EYE-try,2021.2.3,None,
left,0.75,1.0,0,2,0,2,0,0,0,0,0,0,2,2,3,,,,,,,,,,,,,,,3s,1109.605537808995,1110.5970703689964,1110.5798038700013,None,1111.5799449659971,1112.1065477049997,1111.5799449659971,1112.1065477049997,1112.1065477049997,None,1112.1065477049997,None,space,0.31963894799991976,1112.1065477049997,None,0.5293,1112.561705022992,None,,,,,,,DEC011,001,2022_Aug_09_0939,2-25_cond_decay_EYE-try,2021.2.3,None,
left,0.75,1.0,0,2,0,2,0,0,0,0,0,0,3,3,6,,,,,,,,,,,,,,,3s,1113.6135463319952,1114.6075957440044,1114.5915889189928,None,1115.591603656998,1117.3839786939934,1115.591603656998,1117.3839786939934,1117.3893199229933,None,1117.3893199229933,None,space,0.38086899400514085,1117.3893199229933,None,1.7974,1117.9059859609988,None,,,,,,,DEC011,001,2022_Aug_09_0939,2-25_cond_decay_EYE-try,2021.2.3,None,
left,1.0,0.75,1,2,0,2,0,0,0,0,0,0,4,4,5,,,,,,,,,,,,,,,3s,1118.9549898480036,1119.9470780489937,1119.9410821649944,None,1120.9409854349942,1122.924981321994,1120.9409854349942,1122.924981321994,1122.924981321994,None,1122.924981321994,None,space,0.3411173439963022,1122.924981321994,None,1.9833,1123.3974428660003,None,,,,,,,DEC011,001,2022_Aug_09_0939,2-25_cond_decay_EYE-try,2021.2.3,None,
right,1.0,0.75,0,2,0,2,0,0,0,0,0,0,5,5,7,,,,,,,,,,,,,,,3s,1124.4560157300002,1125.4511619989935,1125.4336060409987,None,1126.4331371650042,1128.2556538130011,1126.4331371650042,1128.2556538130011,1128.264391944991,None,1128.264391944991,None,space,0.33774009300395846,1128.264391944991,None,1.8333,1128.7362436399999,None,,,,,,,DEC011,001,2022_Aug_09_0939,2-25_cond_decay_EYE-try,2021.2.3,None,
right,1.0,0.75,0,2,0,2,0,0,0,0,0,0,6,6,0,,,,,,,,,,,,,,,3s,1129.785282085999,1130.7846772719931,1130.7667296120053,None,1131.7736135299929,1133.8635269060032,1131.7736135299929,1133.8635269060032,1133.875202943993,None,1133.875202943993,None,space,0.4549177709996002,1133.875202943993,None,2.0998,1134.464316721991,None,,,,,,,DEC011,001,2022_Aug_09_0939,2-25_cond_decay_EYE-try,2021.2.3,None,
right,1.0,0.75,0,2,0,2,0,0,0,0,0,0,7,7,4,,,,,,,,,,,,,,,3s,1135.512066575,1136.506150065994,1136.4978337749926,None,1137.4992022869992,1140.3588874029956,1137.4992022869992,1140.3588874029956,1140.3588874029956,None,1140.3588874029956,None,space,0.4912197700032266,1140.3588874029956,None,2.8613,1140.9846688699909,None,,,,,,,DEC011,001,2022_Aug_09_0939,2-25_cond_decay_EYE-try,2021.2.3,None,
left,0.75,1.0,0,2,0,2,0,0,0,0,0,0,8,8,8,,,,,,,,,,,,,,,3s,1142.0455137630051,1143.0397987059987,1143.0258989349968,None,1144.021853318991,1144.9227414990019,1144.021853318991,1144.9227414990019,1144.930575513994,None,1144.930575513994,None,space,0.3595629469928099,1144.930575513994,None,0.9089,1145.4211449050053,None,,,,,,,DEC011,001,2022_Aug_09_0939,2-25_cond_decay_EYE-try,2021.2.3,None,
right,0.75,1.0,1,2,0,2,0,0,0,0,0,0,9,9,9,,,,,,,,,,,,,,,3s,1146.4764210139983,1147.4749692229962,1147.4562415690016,None,1148.455878364999,1150.7227037839912,1148.455878364999,1150.7227037839912,1150.7304451249947,None,1150.7304451249947,None,space,0.359748093993403,1150.7304451249947,None,2.2746,1151.2217141869914,None,,,,,,,DEC011,001,2022_Aug_09_0939,2-25_cond_decay_EYE-try,2021.2.3,None,
left,0.75,1.0,0,2,0,2,0,0,0,0,0,1,0,10,1,,,,,,,,,,,,,,,3s,1152.2755566800042,1153.2738624289923,1153.2561953059922,None,1154.2575672219973,1156.5227326360036,1154.2575672219973,1156.5227326360036,1156.5227326360036,None,1156.5227326360036,None,space,0.3513916899973992,1156.5227326360036,None,2.2699,1157.0062489580014,None,,,,,,,DEC011,001,2022_Aug_09_0939,2-25_cond_decay_EYE-try,2021.2.3,None,
right,1.0,0.75,0,2,0,2,0,0,0,0,0,1,1,11,4,,,,,,,,,,,,,,,3s,1158.0642726490041,1159.0571589040046,1159.0336282899952,None,1160.039711955993,1162.3645002769917,1160.039711955993,1162.3645002769917,1162.3723876260046,None,1162.3723876260046,None,space,0.31774845499603543,1162.3723876260046,None,2.3333,1162.8215786090004,None,,,,,,,DEC011,001,2022_Aug_09_0939,2-25_cond_decay_EYE-try,2021.2.3,None,
left,0.75,1.0,0,2,0,2,0,0,0,0,0,1,2,12,3,,,,,,,,,,,,,,,3s,1163.881132629991,1164.8746012649935,1164.8574107150052,None,1165.8560144179937,1168.6730851140019,1165.8560144179937,1168.6730851140019,1168.6730851140019,None,1168.6730851140019,None,space,0.33703557300032116,1168.6730851140019,None,2.8183,1169.142289462994,None,,,,,,,DEC011,001,2022_Aug_09_0939,2-25_cond_decay_EYE-try,2021.2.3,None,
right,1.0,0.75,0,2,0,2,0,0,0,0,0,1,3,13,2,,,,,,,,,,,,,,,3s,1170.2062925619975,1171.200813228992,1171.1893377020024,None,1172.189950023996,1174.9895340130024,1172.189950023996,1174.9895340130024,1174.9973526340036,None,1174.9973526340036,None,None,,1174.9973526340036,None,2.8107,1176.114035890001,None,,,,,,,DEC011,001,2022_Aug_09_0939,2-25_cond_decay_EYE-try,2021.2.3,None,
left,0.75,1.0,0,2,0,2,0,0,0,0,0,1,4,14,8,,,,,,,,,,,,,,,3s,1177.1730628509977,1178.1663752769964,1178.1474331630016,None,1179.1478383159993,1180.2640018889942,1179.1478383159993,1180.2640018889942,1180.274069305,None,1180.274069305,None,space,0.3760677479876904,1180.274069305,None,1.1226,1180.7892392020003,None,,,,,,,DEC011,001,2022_Aug_09_0939,2-25_cond_decay_EYE-try,2021.2.3,None,
left,0.75,1.0,0,2,0,2,0,0,0,0,0,1,5,15,6,,,,,,,,,,,,,,,3s,1181.8447441780008,1182.8391449509945,1182.826544347001,None,1183.8252337019949,1186.5900328319985,1183.8252337019949,1186.5900328319985,1186.5900328319985,1187.583028492998,1186.5900328319985,1187.583028492998,None,,1186.5900328319985,1187.583028492998,2.7733,1187.7143135450024,None,,,,,,,DEC011,001,2022_Aug_09_0939,2-25_cond_decay_EYE-try,2021.2.3,None,
right,0.75,1.0,1,2,0,2,0,0,0,0,0,1,6,16,9,,,,,,,,,,,,,,,3s,1188.772267715991,1189.764105219001,1189.7482039729948,None,1190.7477671639936,1192.3485498619993,1190.7477671639936,1192.3485498619993,1192.358286948991,None,1192.358286948991,None,space,0.33988836700154934,1192.358286948991,None,1.6101,1192.8396373249998,None,,,,,,,DEC011,001,2022_Aug_09_0939,2-25_cond_decay_EYE-try,2021.2.3,None,
right,1.0,0.75,0,2,0,2,0,0,0,0,0,1,7,17,0,,,,,,,,,,,,,,,3s,1193.893361718001,1194.8927108880016,1194.8750125359948,None,1195.8681622430013,1197.790163689002,1195.8681622430013,1197.790163689002,1197.8011007280002,None,1197.8011007280002,None,space,0.28910988599818666,1197.8011007280002,None,1.9309,1198.221092420994,None,,,,,,,DEC011,001,2022_Aug_09_0939,2-25_cond_decay_EYE-try,2021.2.3,None,
right,1.0,0.75,0,2,0,2,0,0,0,0,0,1,8,18,7,,,,,,,,,,,,,,,3s,1199.2734445399983,1200.268135500999,1200.2508292860002,None,1201.2440001219948,1202.1646164779959,1201.2440001219948,1202.1646164779959,1202.1725711199979,None,1202.1725711199979,None,space,0.3895558450021781,1202.1725711199979,None,0.9271,1202.6932022999972,None,,,,,,,DEC011,001,2022_Aug_09_0939,2-25_cond_decay_EYE-try,2021.2.3,None,
left,1.0,0.75,1,2,0,2,0,0,0,0,0,1,9,19,5,,,,,,,,,,,,,,,3s,1203.7567330449965,1204.7476304759912,1204.7348053339956,None,1205.734091485996,1206.8678353479918,1205.734091485996,1206.8678353479918,1206.8678353479918,1207.8573832949915,1206.8678353479918,1207.8573832949915,None,,1206.8678353479918,1207.8573832949915,1.1341,1207.9897474559984,None,,,,,,,DEC011,001,2022_Aug_09_0939,2-25_cond_decay_EYE-try,2021.2.3,None,
,,,,2,0,2,0,0,0,0,0,,,,,,,,,,,,,,,,,,,,,,,,,,,,,,,,,,,,,,,,,,,,,DEC011,001,2022_Aug_09_0939,2-25_cond_decay_EYE-try,2021.2.3,None,
right,0.75,1.0,1,2,0,2,0,1,0,1,0,0,0,0,9,,,,,,,,,1208.8809435900039,None,1208.8809435900039,None,1208.8809435900039,None,1s,1209.9316392430046,1210.9230603009928,1210.9060197889921,None,1211.910034090004,1212.2149801909982,1211.910034090004,1212.2149801909982,1212.2247805039951,None,1212.2247805039951,None,space,0.32143043700489216,1212.2247805039951,None,0.3137,1212.687705199991,None,,,,,,,DEC011,001,2022_Aug_09_0939,2-25_cond_decay_EYE-try,2021.2.3,None,
left,0.75,1.0,0,2,0,2,0,1,0,1,0,0,1,1,2,,,,,,,,,,,,,,,1s,1213.7477302740008,1214.7419085250003,1214.7229499039968,None,1215.7234495449957,1216.0313719910046,1215.7234495449957,1216.0313719910046,1216.0313719910046,None,1216.0313719910046,None,space,0.40274254100222606,1216.0313719910046,None,0.3108,1216.5652556190034,None,,,,,,,DEC011,001,2022_Aug_09_0939,2-25_cond_decay_EYE-try,2021.2.3,None,
left,1.0,0.75,1,2,0,2,0,1,0,1,0,0,2,2,5,,,,,,,,,,,,,,,1s,1217.6203208549996,1218.6147208559996,1218.601929034994,None,1219.6010098209954,1219.977336704993,1219.6010098209954,1219.977336704993,1219.977336704993,None,1219.977336704993,None,space,0.42479013800038956,1219.977336704993,None,0.3779,1220.5366414979944,None,,,,,,,DEC011,001,2022_Aug_09_0939,2-25_cond_decay_EYE-try,2021.2.3,None,
left,0.75,1.0,0,2,0,2,0,1,0,1,0,0,3,3,3,,,,,,,,,,,,,,,1s,1221.583941606994,1222.5843486560043,1222.5772776179947,None,1223.5725934770016,1224.4810191040015,1223.5725934770016,1224.4810191040015,1224.490906513005,None,1224.490906513005,None,space,0.24724585500371177,1224.490906513005,None,0.9168,1224.8728809210006,None,,,,,,,DEC011,001,2022_Aug_09_0939,2-25_cond_decay_EYE-try,2021.2.3,None,
right,1.0,0.75,0,2,0,2,0,1,0,1,0,0,4,4,7,,,,,,,,,,,,,,,1s,1225.931658164991,1226.922885685999,1226.9097047730029,None,1227.899274358002,1228.4062538839935,1227.899274358002,1228.4062538839935,1228.4148511999956,None,1228.4148511999956,None,space,0.3552839009935269,1228.4148511999956,None,0.5132,1228.9048936719919,None,,,,,,,DEC011,001,2022_Aug_09_0939,2-25_cond_decay_EYE-try,2021.2.3,None,
right,1.0,0.75,0,2,0,2,0,1,0,1,0,0,5,5,4,,,,,,,,,,,,,,,1s,1229.9567202040053,1230.948011297005,1230.9337017600046,None,1231.9337095039955,1232.7479312979995,1231.9337095039955,1232.7479312979995,1232.7479312979995,None,1232.7479312979995,None,space,0.27827137999702245,1232.7479312979995,None,0.82,1233.153952787994,None,,,,,,,DEC011,001,2022_Aug_09_0939,2-25_cond_decay_EYE-try,2021.2.3,None,
right,1.0,0.75,0,2,0,2,0,1,0,1,0,0,6,6,1,,,,,,,,,,,,,,,1s,1234.201945591005,1235.200041314005,1235.1819908100006,None,1236.1818358699966,1236.3566149550024,1236.1818358699966,1236.3566149550024,1236.365576901997,None,1236.365576901997,None,space,0.4766361100046197,1236.365576901997,None,0.1792,1236.9722602870024,None,,,,,,,DEC011,001,2022_Aug_09_0939,2-25_cond_decay_EYE-try,2021.2.3,None,
left,0.75,1.0,0,2,0,2,0,1,0,1,0,0,7,7,8,,,,,,,,,,,,,,,1s,1238.0233610909927,1239.0146743109945,1238.990376385991,None,1239.9903458240005,1240.8251120479981,1239.9903458240005,1240.8251120479981,1240.8315972449927,None,1240.8315972449927,None,space,0.34652696500415914,1240.8315972449927,None,0.8384,1241.315406765003,None,,,,,,,DEC011,001,2022_Aug_09_0939,2-25_cond_decay_EYE-try,2021.2.3,None,
right,0.75,1.0,1,2,0,2,0,1,0,1,0,0,8,8,6,,,,,,,,,,,,,,,1s,1242.3784221370006,1243.3775654560013,1243.35859412,None,1244.3593085989996,1245.0016172619944,1244.3593085989996,1245.0016172619944,1245.0016172619944,None,1245.0016172619944,None,space,0.36051098999450915,1245.0016172619944,None,0.6479,1245.4988317410025,None,,,,,,,DEC011,001,2022_Aug_09_0939,2-25_cond_decay_EYE-try,2021.2.3,None,
right,1.0,0.75,0,2,0,2,0,1,0,1,0,0,9,9,0,,,,,,,,,,,,,,,1s,1246.5536988560052,1247.5530032459938,1247.533108499003,None,1248.5335902119987,1248.9821640599985,1248.5335902119987,1248.9821640599985,1248.9821640599985,None,1248.9821640599985,None,space,0.3400156259885989,1248.9821640599985,None,0.4495,1249.4501144310052,None,,,,,,,DEC011,001,2022_Aug_09_0939,2-25_cond_decay_EYE-try,2021.2.3,None,
right,1.0,0.75,0,2,0,2,0,1,0,1,0,1,0,10,1,,,,,,,,,,,,,,,1s,1250.5071566020051,1251.4990248149988,1251.485234245003,None,1252.4813517299917,1252.6991769089946,1252.4813517299917,1252.6991769089946,1252.709220609002,None,1252.709220609002,None,space,0.34091856400482357,1252.709220609002,None,0.226,1253.1821972930047,None,,,,,,,DEC011,001,2022_Aug_09_0939,2-25_cond_decay_EYE-try,2021.2.3,None,
right,1.0,0.75,0,2,0,2,0,1,0,1,0,1,1,11,4,,,,,,,,,,,,,,,1s,1254.2377944909967,1255.231545675997,1255.218350170995,None,1256.218436655996,1257.0740534700017,1256.218436655996,1257.0740534700017,1257.0740534700017,None,1257.0740534700017,None,space,0.3200835140014533,1257.0740534700017,None,0.8603,1257.5296656610008,None,,,,,,,DEC011,001,2022_Aug_09_0939,2-25_cond_decay_EYE-try,2021.2.3,None,
right,0.75,1.0,1,2,0,2,0,1,0,1,0,1,2,12,6,,,,,,,,,,,,,,,1s,1258.5819481350045,1259.5763871149975,1259.5572605839989,None,1260.5592448840034,1260.9351951760036,1260.5592448840034,1260.9351951760036,1260.9351951760036,None,1260.9351951760036,None,space,0.45093463800731115,1260.9351951760036,None,0.3805,1261.522968092002,None,,,,,,,DEC011,001,2022_Aug_09_0939,2-25_cond_decay_EYE-try,2021.2.3,None,
right,1.0,0.75,0,2,0,2,0,1,0,1,0,1,3,13,7,,,,,,,,,,,,,,,1s,1262.5776511479926,1263.5764363780036,1263.559934511999,None,1264.5568359549943,1265.1524885359977,1264.5568359549943,1265.1524885359977,1265.1524885359977,None,1265.1524885359977,None,space,0.4897174349898705,1265.1524885359977,None,0.5986,1265.771209768005,None,,,,,,,DEC011,001,2022_Aug_09_0939,2-25_cond_decay_EYE-try,2021.2.3,None,
right,1.0,0.75,0,2,0,2,0,1,0,1,0,1,4,14,0,,,,,,,,,,,,,,,1s,1266.8234068559977,1267.8183112760016,1267.801483335992,None,1268.8020848269953,1269.2178368979949,1268.8020848269953,1269.2178368979949,1269.2178368979949,None,1269.2178368979949,None,space,0.3123012080031913,1269.2178368979949,None,0.4182,1269.6627783400036,None,,,,,,,DEC011,001,2022_Aug_09_0939,2-25_cond_decay_EYE-try,2021.2.3,None,
left,1.0,0.75,1,2,0,2,0,1,0,1,0,1,5,15,5,,,,,,,,,,,,,,,1s,1270.722936481994,1271.7150601629983,1271.699231228995,None,1272.6988542979961,1273.5158153069933,1272.6988542979961,1273.5158153069933,1273.5271148699976,None,1273.5271148699976,None,space,0.3470228750084061,1273.5271148699976,None,0.8255,1274.0018137849984,None,,,,,,,DEC011,001,2022_Aug_09_0939,2-25_cond_decay_EYE-try,2021.2.3,None,
left,0.75,1.0,0,2,0,2,0,1,0,1,0,1,6,16,2,,,,,,,,,,,,,,,1s,1275.0558556949982,1276.048719282,1276.0428818749933,None,1277.043100444993,1277.5405803299946,1277.043100444993,1277.5405803299946,1277.5405803299946,None,1277.5405803299946,None,space,0.5255590419983491,1277.5405803299946,None,0.5042,1278.1957786269923,None,,,,,,,DEC011,001,2022_Aug_09_0939,2-25_cond_decay_EYE-try,2021.2.3,None,
left,0.75,1.0,0,2,0,2,0,1,0,1,0,1,7,17,3,,,,,,,,,,,,,,,1s,1279.2492071470042,1280.2434566919983,1280.2255489259987,None,1281.2236472270015,1281.998520099005,1281.2236472270015,1281.998520099005,1282.0191624629952,None,1282.0191624629952,None,space,0.3270493829913903,1282.0191624629952,None,0.7862,1282.479997743998,None,,,,,,,DEC011,001,2022_Aug_09_0939,2-25_cond_decay_EYE-try,2021.2.3,None,
left,0.75,1.0,0,2,0,2,0,1,0,1,0,1,8,18,8,,,,,,,,,,,,,,,1s,1283.529429243994,1284.5282874510012,1284.5096719409921,None,1285.5088466669986,1286.0660614549997,1285.5088466669986,1286.0660614549997,1286.0660614549997,None,1286.0660614549997,None,space,0.4080651399999624,1286.0660614549997,None,0.5648,1286.6014216339972,None,,,,,,,DEC011,001,2022_Aug_09_0939,2-25_cond_decay_EYE-try,2021.2.3,None,
left,0.75,1.0,0,2,0,2,0,1,0,1,0,1,9,19,9,,,,,,,,,,,,,,,1s,1287.656491429996,1288.6490893459995,1288.6419798879942,None,1289.6419524349913,1290.0489217139984,1289.6419524349913,1290.0489217139984,1290.060105105993,None,1290.060105105993,None,space,0.35014515899820253,1290.060105105993,None,0.4145,1290.5474090819916,None,,,,,,,DEC011,001,2022_Aug_09_0939,2-25_cond_decay_EYE-try,2021.2.3,None,
,,,,2,0,2,0,1,0,1,0,,,,,,,,,,,,,,,,,,,,,,,,,,,,,,,,,,,,,,,,,,,,,DEC011,001,2022_Aug_09_0939,2-25_cond_decay_EYE-try,2021.2.3,None,
right,1.0,0.75,0,2,0,2,0,2,0,2,0,0,0,0,6,,,,,,,,,1291.4383709270041,None,1291.4383709270041,None,1291.4383709270041,None,10s,1293.215360703005,1294.2070367419947,1294.1940588440048,None,1295.1940288350015,1301.708974285997,1295.1940288350015,1301.708974285997,1301.708974285997,None,1301.708974285997,None,space,0.4211604229931254,1301.708974285997,None,6.5189,1302.2682995210052,None,,,,,,,DEC011,001,2022_Aug_09_0939,2-25_cond_decay_EYE-try,2021.2.3,None,
left,0.75,1.0,0,2,0,2,0,2,0,2,0,0,1,1,3,,,,,,,,,,,,,,,10s,1303.3327965569915,1304.3267982169928,1304.3155424619908,None,1305.3165200749936,1312.958542059001,1305.3165200749936,1312.958542059001,1312.958542059001,None,1312.958542059001,None,space,0.42759643599856645,1312.958542059001,None,7.6466,1313.5221126209944,None,,,,,,,DEC011,001,2022_Aug_09_0939,2-25_cond_decay_EYE-try,2021.2.3,None,
left,0.75,1.0,0,2,0,2,0,2,0,2,0,0,2,2,5,,,,,,,,,,,,,,,10s,1314.5742754880048,1315.5698385449941,1315.5506554079911,None,1316.5523133090028,1319.6414050599997,1316.5523133090028,1319.6414050599997,1319.6414050599997,None,1319.6414050599997,None,space,0.37672215700149536,1319.6414050599997,None,3.092,1320.1524166439922,None,,,,,,,DEC011,001,2022_Aug_09_0939,2-25_cond_decay_EYE-try,2021.2.3,None,
right,1.0,0.75,0,2,0,2,0,2,0,2,0,0,3,3,4,,,,,,,,,,,,,,,10s,1321.215485844994,1322.2077493450051,1322.1933763779962,None,1323.1935099399998,1333.1263686680031,1323.1935099399998,1333.1263686680031,1333.1263686680031,None,1333.1263686680031,None,None,,1333.1263686680031,None,9.9325,1334.2408357929962,None,,,,,,,DEC011,001,2022_Aug_09_0939,2-25_cond_decay_EYE-try,2021.2.3,None,
left,0.75,1.0,0,2,0,2,0,2,0,2,0,0,4,4,7,,,,,,,,,,,,,,,10s,1335.2980920160044,1336.2914708019962,1336.2675061280024,None,1337.2661440869997,1337.6605116260034,1337.2661440869997,1337.6605116260034,1337.6661569120042,None,1337.6661569120042,None,space,0.47199877799721435,1337.6661569120042,None,0.401,1338.2796449339949,None,,,,,,,DEC011,001,2022_Aug_09_0939,2-25_cond_decay_EYE-try,2021.2.3,None,
right,0.75,1.0,1,2,0,2,0,2,0,2,0,0,5,5,2,,,,,,,,,,,,,,,10s,1339.3221662750002,1340.3162170249998,1340.3103151190007,None,1341.310410556005,1350.5022287829925,1341.310410556005,1350.5022287829925,1350.507714174004,None,1350.507714174004,None,space,0.4304451829957543,1350.507714174004,None,9.1922,1351.0741280130023,None,,,,,,,DEC011,001,2022_Aug_09_0939,2-25_cond_decay_EYE-try,2021.2.3,None,
right,1.0,0.75,0,2,0,2,0,2,0,2,0,0,6,6,9,,,,,,,,,,,,,,,10s,1352.1222504360048,1353.1199230460043,1353.107773059004,None,1354.1098503849935,1355.6115933949914,1354.1098503849935,1355.6115933949914,1355.6115933949914,None,1355.6115933949914,None,space,0.3585521479981253,1355.6115933949914,None,1.503,1356.1040450019937,None,,,,,,,DEC011,001,2022_Aug_09_0939,2-25_cond_decay_EYE-try,2021.2.3,None,
right,1.0,0.75,0,2,0,2,0,2,0,2,0,0,7,7,0,,,,,,,,,,,,,,,10s,1357.1521379810001,1358.1500638559955,1358.1440587450052,None,1359.1452262450039,1362.9263588989998,1359.1452262450039,1362.9263588989998,1362.9263588989998,None,1362.9263588989998,None,None,,1362.9263588989998,None,3.7834,1364.049114508991,None,,,,,,,DEC011,001,2022_Aug_09_0939,2-25_cond_decay_EYE-try,2021.2.3,None,
left,0.75,1.0,0,2,0,2,0,2,0,2,0,0,8,8,8,,,,,,,,,,,,,,,10s,1365.10780754,1366.1022679820016,1366.085144925004,None,1367.0834694009973,1372.7685012909933,1367.0834694009973,1372.7685012909933,1372.7749473489966,None,1372.7749473489966,None,space,0.38719707999553066,1372.7749473489966,None,5.6895,1373.3035439619998,None,,,,,,,DEC011,001,2022_Aug_09_0939,2-25_cond_decay_EYE-try,2021.2.3,None,
left,1.0,0.75,1,2,0,2,0,2,0,2,0,0,9,9,1,,,,,,,,,,,,,,,10s,1374.3524495729944,1375.3521671880007,1375.3276348590007,None,1376.3337025100045,1376.877537168999,1376.3337025100045,1376.877537168999,1376.877537168999,None,1376.877537168999,None,space,0.7886098430026323,1376.877537168999,None,0.5478,1377.7939732749946,None,,,,,,,DEC011,001,2022_Aug_09_0939,2-25_cond_decay_EYE-try,2021.2.3,None,
right,0.75,1.0,1,2,0,2,0,2,0,2,0,1,0,10,2,,,,,,,,,,,,,,,10s,1378.854968211992,1379.8527142609964,1379.8242283400032,None,1380.8248603020038,1389.6787105370022,1380.8248603020038,1389.6787105370022,1389.6855461550003,None,1389.6855461550003,None,space,0.45267541000794154,1389.6855461550003,None,8.8569,1390.2733369460038,None,,,,,,,DEC011,001,2022_Aug_09_0939,2-25_cond_decay_EYE-try,2021.2.3,None,
left,0.75,1.0,0,2,0,2,0,2,0,2,0,1,1,11,8,,,,,,,,,,,,,,,10s,1391.3337032739946,1392.3246232509991,1392.3095458430034,None,1393.308704643001,1401.3665859750035,1393.308704643001,1401.3665859750035,1401.375612140997,None,1401.375612140997,None,space,0.4266057689965237,1401.375612140997,None,8.0686,1401.9332694969926,None,,,,,,,DEC011,001,2022_Aug_09_0939,2-25_cond_decay_EYE-try,2021.2.3,None,
right,1.0,0.75,0,2,0,2,0,2,0,2,0,1,2,12,6,,,,,,,,,,,,,,,10s,1402.9944513439987,1403.992010047994,1403.967165680995,None,1404.9669461640005,1412.0534864749934,1404.9669461640005,1412.0534864749934,1412.0590190840012,None,1412.0590190840012,None,None,,1412.0590190840012,None,7.0927,1413.1757958009985,None,,,,,,,DEC011,001,2022_Aug_09_0939,2-25_cond_decay_EYE-try,2021.2.3,None,
left,1.0,0.75,1,2,0,2,0,2,0,2,0,1,3,13,1,,,,,,,,,,,,,,,10s,1414.2338538699987,1415.2286394949915,1415.210436266003,None,1416.210580605999,1421.8362872089929,1416.210580605999,1421.8362872089929,1421.8362872089929,None,1421.8362872089929,None,None,,1421.8362872089929,None,5.6266,1422.9573034030036,None,,,,,,,DEC011,001,2022_Aug_09_0939,2-25_cond_decay_EYE-try,2021.2.3,None,
right,1.0,0.75,0,2,0,2,0,2,0,2,0,1,4,14,9,,,,,,,,,,,,,,,10s,1424.0118436729972,1425.0109818490018,1424.986445522998,None,1425.9862374450022,1427.7006682100036,1425.9862374450022,1427.7006682100036,1427.7006682100036,None,1427.7006682100036,None,space,0.7174822259985376,1427.7006682100036,None,1.716,1428.5573457169958,None,,,,,,,DEC011,001,2022_Aug_09_0939,2-25_cond_decay_EYE-try,2021.2.3,None,
right,1.0,0.75,0,2,0,2,0,2,0,2,0,1,5,15,4,,,,,,,,,,,,,,,10s,1429.605729685005,1430.6003101929964,1430.5862995030038,None,1431.5860729179985,1441.3509795790014,1431.5860729179985,1441.3509795790014,1441.3620722780033,None,1441.3620722780033,None,space,0.5041620330011938,1441.3620722780033,None,9.7761,1441.9937591769994,None,,,,,,,DEC011,001,2022_Aug_09_0939,2-25_cond_decay_EYE-try,2021.2.3,None,
left,0.75,1.0,0,2,0,2,0,2,0,2,0,1,6,16,5,,,,,,,,,,,,,,,10s,1443.0538224369957,1444.0529201540048,1444.0288327509916,None,1445.0281168590009,1450.9839354799915,1445.0281168590009,1450.9839354799915,1450.9917021309957,None,1450.9917021309957,None,space,0.46650701499311253,1450.9917021309957,None,5.9647,1451.5870795599913,None,,,,,,,DEC011,001,2022_Aug_09_0939,2-25_cond_decay_EYE-try,2021.2.3,None,
right,1.0,0.75,0,2,0,2,0,2,0,2,0,1,7,17,0,,,,,,,,,,,,,,,10s,1452.6427862679993,1453.6358953129966,1453.6174590320006,None,1454.618305077005,1464.1265880370047,1454.618305077005,1464.1265880370047,1464.1265880370047,None,1464.1265880370047,None,space,0.3955691800074419,1464.1265880370047,None,9.516,1464.6595096279925,None,,,,,,,DEC011,001,2022_Aug_09_0939,2-25_cond_decay_EYE-try,2021.2.3,None,
left,0.75,1.0,0,2,0,2,0,2,0,2,0,1,8,18,7,,,,,,,,,,,,,,,10s,1465.7142490469996,1466.7089826729934,1466.6947838609922,None,1467.6949090109993,1468.7937373239984,1467.6949090109993,1468.7937373239984,1468.7937373239984,None,1468.7937373239984,None,space,0.47247983899433166,1468.7937373239984,None,1.1054,1469.3991303459916,None,,,,,,,DEC011,001,2022_Aug_09_0939,2-25_cond_decay_EYE-try,2021.2.3,None,
left,0.75,1.0,0,2,0,2,0,2,0,2,0,1,9,19,3,,,,,,,,,,,,,,,10s,1470.4512038190005,1471.4467173449957,1471.4288548149925,None,1472.4286053800024,1478.5127513629996,1472.4286053800024,1478.5127513629996,1478.5127513629996,None,1478.5127513629996,None,space,0.4094758919964079,1478.5127513629996,None,6.0862,1479.054163541994,None,,,,,,,DEC011,001,2022_Aug_09_0939,2-25_cond_decay_EYE-try,2021.2.3,None,
,,,,2,0,2,0,2,0,2,0,,,,,,,,,,,,,,,,,,,,,,,,,,,,,,,,,,,,,,,,,,,,,DEC011,001,2022_Aug_09_0939,2-25_cond_decay_EYE-try,2021.2.3,None,
left,0.75,1.0,0,2,0,2,0,3,0,3,0,0,0,0,0,,,,,,,,,1479.9508840490016,None,1479.9508840490016,None,1479.9508840490016,None,5s,1481.4838212460018,1482.4762039320049,1482.4703172129957,None,1483.4715655009932,1485.7180964760046,1483.4715655009932,1485.7180964760046,1485.7180964760046,None,1485.7180964760046,None,space,0.38812959200004116,1485.7180964760046,None,2.2535,1486.241869638994,None,,,,,,,DEC011,001,2022_Aug_09_0939,2-25_cond_decay_EYE-try,2021.2.3,None,
left,0.75,1.0,0,2,0,2,0,3,0,3,0,0,1,1,2,,,,,,,,,,,,,,,5s,1487.2900723320054,1488.2847029969998,1488.2590988110023,None,1489.2602108239953,1489.7431709730008,1489.2602108239953,1489.7431709730008,1489.7505331389984,None,1489.7505331389984,None,None,,1489.7505331389984,None,0.4894,1490.8672651599918,None,,,,,,,DEC011,001,2022_Aug_09_0939,2-25_cond_decay_EYE-try,2021.2.3,None,
left,0.75,1.0,0,2,0,2,0,3,0,3,0,0,2,2,7,,,,,,,,,,,,,,,5s,1491.918190936005,1492.913526474993,1492.8956337519921,None,1493.8942549649946,1496.2113463040005,1493.8942549649946,1496.2113463040005,1496.2211641710019,None,1496.2211641710019,None,space,0.3010015299951192,1496.2211641710019,None,2.3261,1496.6660023479926,None,,,,,,,DEC011,001,2022_Aug_09_0939,2-25_cond_decay_EYE-try,2021.2.3,None,
right,1.0,0.75,0,2,0,2,0,3,0,3,0,0,3,3,8,,,,,,,,,,,,,,,5s,1497.7142806799966,1498.7135831259948,1498.6946438930026,None,1499.6961232719914,1502.2759957289963,1499.6961232719914,1502.2759957289963,1502.2885233989946,None,1502.2885233989946,None,space,0.3137175629963167,1502.2885233989946,None,2.5896,1502.732873765999,None,,,,,,,DEC011,001,2022_Aug_09_0939,2-25_cond_decay_EYE-try,2021.2.3,None,
right,1.0,0.75,0,2,0,2,0,3,0,3,0,0,4,4,5,,,,,,,,,,,,,,,5s,1503.784420921991,1504.7794390670024,1504.7594972660008,None,1505.7624981239933,1508.7263889000023,1505.7624981239933,1508.7263889000023,1508.7361896840011,None,1508.7361896840011,None,space,0.28998330399917904,1508.7361896840011,None,2.9705,1509.1569727149908,None,,,,,,,DEC011,001,2022_Aug_09_0939,2-25_cond_decay_EYE-try,2021.2.3,None,
left,1.0,0.75,1,2,0,2,0,3,0,3,0,0,5,5,3,,,,,,,,,,,,,,,5s,1510.210656575,1511.2039594829985,1511.184913716992,None,1512.1868064650043,1513.118136885998,1512.1868064650043,1513.118136885998,1513.1258839509974,None,1513.1258839509974,None,space,0.5403679729934083,1513.1258839509974,None,0.9397,1513.7990625450038,None,,,,,,,DEC011,001,2022_Aug_09_0939,2-25_cond_decay_EYE-try,2021.2.3,None,
right,1.0,0.75,0,2,0,2,0,3,0,3,0,0,6,6,1,,,,,,,,,,,,,,,5s,1514.8512179870013,1515.846536861005,1515.8215958479996,None,1516.8212809160032,1519.084242558005,1516.8212809160032,1519.084242558005,1519.0941696090013,None,1519.0941696090013,None,space,0.29200095699343365,1519.0941696090013,None,2.2735,1519.517959417004,None,,,,,,,DEC011,001,2022_Aug_09_0939,2-25_cond_decay_EYE-try,2021.2.3,None,
right,1.0,0.75,0,2,0,2,0,3,0,3,0,0,7,7,9,,,,,,,,,,,,,,,5s,1520.5805118659919,1521.579034170005,1521.5621222199989,None,1522.554980157991,1523.6451066949958,1522.554980157991,1523.6451066949958,1523.6451066949958,None,1523.6451066949958,None,space,0.5731279449973954,1523.6451066949958,None,1.0897,1524.3502585679962,None,,,,,,,DEC011,001,2022_Aug_09_0939,2-25_cond_decay_EYE-try,2021.2.3,None,
right,0.75,1.0,1,2,0,2,0,3,0,3,0,0,8,8,6,,,,,,,,,,,,,,,5s,1525.401243653003,1526.393181366002,1526.3789408849989,None,1527.3789356780035,1529.9685144719988,1527.3789356780035,1529.9685144719988,1529.9685144719988,None,1529.9685144719988,None,space,0.5136418450128986,1529.9685144719988,None,2.5949,1530.6169886729913,None,,,,,,,DEC011,001,2022_Aug_09_0939,2-25_cond_decay_EYE-try,2021.2.3,None,
left,0.75,1.0,0,2,0,2,0,3,0,3,0,0,9,9,4,,,,,,,,,,,,,,,5s,1531.6764272830042,1532.669783817997,1532.6515633590025,None,1533.6513254610036,1537.0099120599916,1533.6513254610036,1537.0099120599916,1537.020841974998,None,1537.020841974998,None,space,0.3253328959981445,1537.020841974998,None,3.3615,1537.4833033769974,None,,,,,,,DEC011,001,2022_Aug_09_0939,2-25_cond_decay_EYE-try,2021.2.3,None,
right,1.0,0.75,0,2,0,2,0,3,0,3,0,1,0,10,5,,,,,,,,,,,,,,,5s,1538.5349661880027,1539.5298967330018,1539.5182038969942,None,1540.5202145980002,1545.3783490969945,1540.5202145980002,1545.3783490969945,1545.384827678994,None,1545.384827678994,None,space,0.44941675500012934,1545.384827678994,None,4.8638,1545.9623194729938,None,,,,,,,DEC011,001,2022_Aug_09_0939,2-25_cond_decay_EYE-try,2021.2.3,None,
right,1.0,0.75,0,2,0,2,0,3,0,3,0,1,1,11,9,,,,,,,,,,,,,,,5s,1547.0162044369936,1548.0103431470052,1548.0021416550007,None,1549.0047439659975,1551.0020367879915,1549.0047439659975,1551.0020367879915,1551.0020367879915,None,1551.0020367879915,None,None,,1551.0020367879915,None,2.0001,1552.117880114005,None,,,,,,,DEC011,001,2022_Aug_09_0939,2-25_cond_decay_EYE-try,2021.2.3,None,
left,0.75,1.0,0,2,0,2,0,3,0,3,0,1,2,12,7,,,,,,,,,,,,,,,5s,1553.1744154229964,1554.1677425679954,1554.1549388989952,None,1555.1544365000009,1559.1536908749986,1555.1544365000009,1559.1536908749986,1559.1536908749986,None,1559.1536908749986,None,space,0.42455307899217587,1559.1536908749986,None,4.004,1559.7132324999984,None,,,,,,,DEC011,001,2022_Aug_09_0939,2-25_cond_decay_EYE-try,2021.2.3,None,
left,1.0,0.75,1,2,0,2,0,3,0,3,0,1,3,13,3,,,,,,,,,,,,,,,5s,1560.7561230589927,1561.7550144659908,1561.7379877079948,None,1562.7350823529996,1566.7304642189993,1562.7350823529996,1566.7304642189993,1566.7380504879984,None,1566.7380504879984,None,space,0.38412109499040525,1566.7380504879984,None,3.9993,1567.2589597289916,None,,,,,,,DEC011,001,2022_Aug_09_0939,2-25_cond_decay_EYE-try,2021.2.3,None,
left,0.75,1.0,0,2,0,2,0,3,0,3,0,1,4,14,4,,,,,,,,,,,,,,,5s,1568.3130175270053,1569.310328120002,1569.2933609159954,None,1570.2932255250053,1573.6385668580042,1570.2932255250053,1573.6385668580042,1573.6464978269942,None,1573.6464978269942,None,space,0.3877385200030403,1573.6464978269942,None,3.3473,1574.1623852460034,None,,,,,,,DEC011,001,2022_Aug_09_0939,2-25_cond_decay_EYE-try,2021.2.3,None,
left,0.75,1.0,0,2,0,2,0,3,0,3,0,1,5,15,0,,,,,,,,,,,,,,,5s,1575.2106991460023,1576.2022734679922,1576.1852274830017,None,1577.1853564649937,1578.1015911229915,1577.1853564649937,1578.1015911229915,1578.1113437769964,None,1578.1113437769964,None,space,0.5229092960071284,1578.1113437769964,None,0.9242,1578.7682818750036,None,,,,,,,DEC011,001,2022_Aug_09_0939,2-25_cond_decay_EYE-try,2021.2.3,None,
left,0.75,1.0,0,2,0,2,0,3,0,3,0,1,6,16,2,,,,,,,,,,,,,,,5s,1579.8161844760034,1580.8102038700017,1580.7963104039954,None,1581.7964134030044,1583.2689782590023,1581.7964134030044,1583.2689782590023,1583.2689782590023,None,1583.2689782590023,None,space,0.31719113000144716,1583.2689782590023,None,1.4803,1583.7190280560026,None,,,,,,,DEC011,001,2022_Aug_09_0939,2-25_cond_decay_EYE-try,2021.2.3,None,
right,0.75,1.0,1,2,0,2,0,3,0,3,0,1,7,17,6,,,,,,,,,,,,,,,5s,1584.780136959991,1585.7773914569989,1585.7598188249976,None,1586.7599653929938,1589.6934430629917,1586.7599653929938,1589.6934430629917,1589.7049755149928,None,1589.7049755149928,None,space,0.3052716210077051,1589.7049755149928,None,2.9429,1590.1376337270049,None,,,,,,,DEC011,001,2022_Aug_09_0939,2-25_cond_decay_EYE-try,2021.2.3,None,
right,1.0,0.75,0,2,0,2,0,3,0,3,0,1,8,18,1,,,,,,,,,,,,,,,5s,1591.191405783,1592.1859971789963,1592.180044637993,None,1593.180216888999,1593.4104079279932,1593.180216888999,1593.4104079279932,1593.4104079279932,1594.4017053999996,1593.4104079279932,1594.4017053999996,None,,1593.4104079279932,1594.4017053999996,0.2369,1594.5310800669977,None,,,,,,,DEC011,001,2022_Aug_09_0939,2-25_cond_decay_EYE-try,2021.2.3,None,
right,1.0,0.75,0,2,0,2,0,3,0,3,0,1,9,19,8,,,,,,,,,,,,,,,5s,1595.5853795220028,1596.577194190002,1596.5606084159954,None,1597.5608293469995,1598.5101559989998,1597.5608293469995,1598.5101559989998,1598.5189989729988,None,1598.5189989729988,None,space,0.32325513000250794,1598.5189989729988,None,0.9569,1598.9769953060022,None,,,,,,,DEC011,001,2022_Aug_09_0939,2-25_cond_decay_EYE-try,2021.2.3,None,
,,,,2,0,2,0,3,0,3,0,,,,,,,,,,,,,,,,,,,,,,,,,,,,,,,,,,,,,,,,,,,,,DEC011,001,2022_Aug_09_0939,2-25_cond_decay_EYE-try,2021.2.3,None,
,,,,2,0,2,0,,,,,,,,,,,,,,,,,,,,,,,,,,,,,,,,,,,,,,,,,,,1599.8648334220052,None,1599.8648334220052,None,1599.8648334220052,None,DEC011,001,2022_Aug_09_0939,2-25_cond_decay_EYE-try,2021.2.3,None,
left,0.75,1.0,0,3,0,3,0,0,0,0,0,0,0,0,2,,,,,,,,,1604.8690145209985,None,1604.8690145209985,None,1604.8690145209985,None,1s,1610.5863500190026,1611.5790645099914,1611.5557710279973,None,1612.5524764239963,1613.335133251996,1612.5524764239963,1613.335133251996,1613.3481343930034,None,1613.3481343930034,None,space,0.27004933200078085,1613.3481343930034,None,0.7851,1613.7497816050018,None,,,,,,,DEC011,001,2022_Aug_09_0939,2-25_cond_decay_EYE-try,2021.2.3,None,
right,0.75,1.0,1,3,0,3,0,0,0,0,0,0,1,1,1,,,,,,,,,,,,,,,1s,1614.8028487809934,1615.7963189820002,1615.779868543992,None,1616.7770564940001,1616.9300315080036,1616.7770564940001,1616.9300315080036,1616.9366751769994,None,1616.9366751769994,None,space,0.35351703099149745,1616.9366751769994,None,0.1592,1617.4274260169914,None,,,,,,,DEC011,001,2022_Aug_09_0939,2-25_cond_decay_EYE-try,2021.2.3,None,
right,1.0,0.75,0,3,0,3,0,0,0,0,0,0,2,2,3,,,,,,,,,,,,,,,1s,1618.482223871004,1619.480869223,1619.4523306899937,None,1620.4519491969986,1621.427877877999,1620.4519491969986,1621.427877877999,1621.4388227519958,None,1621.4388227519958,None,space,0.28342002400313504,1621.4388227519958,None,0.9802,1621.858046680005,None,,,,,,,DEC011,001,2022_Aug_09_0939,2-25_cond_decay_EYE-try,2021.2.3,None,
left,1.0,0.75,1,3,0,3,0,0,0,0,0,0,3,3,8,,,,,,,,,,,,,,,1s,1622.9123241000052,1623.910128250005,1623.8870565459947,None,1624.8884685639932,1625.5128907379985,1624.8884685639932,1625.5128907379985,1625.518480536004,None,1625.518480536004,None,space,0.2917076890007593,1625.518480536004,None,0.6349,1625.9428765170014,None,,,,,,,DEC011,001,2022_Aug_09_0939,2-25_cond_decay_EYE-try,2021.2.3,None,
right,1.0,0.75,0,3,0,3,0,0,0,0,0,0,4,4,5,,,,,,,,,,,,,,,1s,1626.9856351420021,1627.9776623139915,1627.955278274996,None,1628.9603734260018,1629.1858420390054,1628.9603734260018,1629.1858420390054,1629.195844639995,None,1629.195844639995,None,space,0.04631491701002233,1629.195844639995,None,0.231,1629.3734434859944,None,,,,,,,DEC011,001,2022_Aug_09_0939,2-25_cond_decay_EYE-try,2021.2.3,None,
