attn_cue,left_ob,right_ob,congruent,runs.thisRepN,runs.thisTrialN,runs.thisN,runs.thisIndex,blocks.thisRepN,blocks.thisTrialN,blocks.thisN,blocks.thisIndex,trials.thisRepN,trials.thisTrialN,trials.thisN,trials.thisIndex,welcome.started,welcome.stopped,text_2.started,text_2.stopped,init_key_resp.keys,init_key_resp.rt,init_key_resp.started,init_key_resp.stopped,text_3.started,text_3.stopped,text_4.started,text_4.stopped,text_5.started,text_5.stopped,block_num,texter.started,texter.stopped,cross.started,cross.stopped,left_star.started,left_star.stopped,right_star.started,right_star.stopped,left_2.started,left_2.stopped,right_2.started,right_2.stopped,key_resp.keys,key_resp.rt,key_resp.started,key_resp.stopped,Rand Tim,text.started,text.stopped,end.started,end.stopped,text_6.started,text_6.stopped,text_7.started,text_7.stopped,participant,session,date,expName,psychopyVersion,frameRate,
,,,,,,,,,,,,,,,,140.34541306601022,None,140.34541306601022,None,space,2.955861679991358,140.34541306601022,None,,,,,,,,,,,,,,,,,,,,,,,,,,,,,,,,,007,001,2022_Jun_29_1141,2-25_cond_decay_EYE-try,2021.2.3,166.13645051591405,
left,0.75,1.0,0,0,0,0,0,0,0,0,0,0,0,0,0,,,,,,,,,143.325582141013,None,143.325582141013,None,143.325582141013,None,5s,148.12617727500037,149.12754528601363,149.11484103600378,None,150.11461895100365,154.93341411001165,150.11461895100365,154.93341411001165,154.93341411001165,None,154.93341411001165,None,space,0.5198082070128294,154.93341411001165,None,4.815,155.59288849201403,None,,,,,,,007,001,2022_Jun_29_1141,2-25_cond_decay_EYE-try,2021.2.3,166.13645051591405,
right,1.0,0.75,0,0,0,0,0,0,0,0,0,0,1,1,6,,,,,,,,,,,,,,,5s,156.63632397500623,157.63641291600652,157.63033871600055,None,158.6296794580121,159.45275826701254,158.6296794580121,159.45275826701254,159.44689046801068,None,159.44689046801068,None,space,0.7263904670107877,159.44689046801068,None,0.8154,160.30203290301142,None,,,,,,,007,001,2022_Jun_29_1141,2-25_cond_decay_EYE-try,2021.2.3,166.13645051591405,
right,1.0,0.75,0,0,0,0,0,0,0,0,0,0,2,2,8,,,,,,,,,,,,,,,5s,161.3562749900011,162.3575183540088,162.34493268901133,None,163.34488533000695,165.1995011310064,163.34488533000695,165.1995011310064,165.1995011310064,None,165.1995011310064,None,space,0.5656999259954318,165.1995011310064,None,1.8533,165.90122680300556,None,,,,,,,007,001,2022_Jun_29_1141,2-25_cond_decay_EYE-try,2021.2.3,166.13645051591405,
right,1.0,0.75,0,0,0,0,0,0,0,0,0,0,3,3,1,,,,,,,,,,,,,,,5s,166.95555445300124,167.95685241601313,167.9510603020026,None,168.9446399610024,169.10923373200058,168.9446399610024,169.10923373200058,169.10923373200058,None,169.10923373200058,None,space,0.6799625319981715,169.10923373200058,None,0.1587,169.9257225580077,None,,,,,,,007,001,2022_Jun_29_1141,2-25_cond_decay_EYE-try,2021.2.3,166.13645051591405,
right,1.0,0.75,0,0,0,0,0,0,0,0,0,0,4,4,7,,,,,,,,,,,,,,,5s,170.97421301800932,171.97555559201282,171.96296815200185,None,172.96332340801018,176.4908490300004,172.96332340801018,176.4908490300004,176.4908490300004,None,176.4908490300004,None,space,0.45036686898674816,176.4908490300004,None,3.5262,177.07679301401367,None,,,,,,,007,001,2022_Jun_29_1141,2-25_cond_decay_EYE-try,2021.2.3,166.13645051591405,
left,0.75,1.0,0,0,0,0,0,0,0,0,0,0,5,5,3,,,,,,,,,,,,,,,5s,178.13292098500824,179.1326011580095,179.12657442800992,None,180.1268858780095,184.2893639660033,180.1268858780095,184.2893639660033,184.28263397300907,None,184.28263397300907,None,space,0.38661818599211983,184.28263397300907,None,4.1547,184.80434306101233,None,,,,,,,007,001,2022_Jun_29_1141,2-25_cond_decay_EYE-try,2021.2.3,166.13645051591405,
left,0.75,1.0,0,0,0,0,0,0,0,0,0,0,6,6,4,,,,,,,,,,,,,,,5s,185.85381628100004,186.85416165500646,186.84801590901043,None,187.8483462639997,191.56810514901008,187.8483462639997,191.56810514901008,191.56128308401094,None,191.56128308401094,None,space,0.42000267599360086,191.56128308401094,None,3.7104,192.10871588501323,None,,,,,,,007,001,2022_Jun_29_1141,2-25_cond_decay_EYE-try,2021.2.3,166.13645051591405,
left,0.75,1.0,0,0,0,0,0,0,0,0,0,0,7,7,2,,,,,,,,,,,,,,,5s,193.16229722600838,194.16341567500785,194.15674987100647,None,195.1570333000127,198.0050197380042,195.1570333000127,198.0050197380042,198.0050197380042,None,198.0050197380042,None,space,0.37618487200234085,198.0050197380042,None,2.8444,198.51353607900091,None,,,,,,,007,001,2022_Jun_29_1141,2-25_cond_decay_EYE-try,2021.2.3,166.13645051591405,
right,0.75,1.0,1,0,0,0,0,0,0,0,0,0,8,8,9,,,,,,,,,,,,,,,5s,199.56812711000384,200.56946354400134,200.55729807101307,None,201.55672474901075,203.0604469480022,201.55672474901075,203.0604469480022,203.0604469480022,None,203.0604469480022,None,space,0.5527750210021622,203.0604469480022,None,1.502,203.74953593700775,None,,,,,,,007,001,2022_Jun_29_1141,2-25_cond_decay_EYE-try,2021.2.3,166.13645051591405,
left,0.75,1.0,0,0,0,0,0,0,0,0,0,0,9,9,5,,,,,,,,,,,,,,,5s,204.8055006800132,205.80490893201204,205.799054935007,None,206.79888358700555,211.80349875800312,206.79888358700555,211.80349875800312,211.79760212100518,None,211.79760212100518,None,space,0.41560829599620774,211.79760212100518,None,4.9962,212.34930516401073,None,,,,,,,007,001,2022_Jun_29_1141,2-25_cond_decay_EYE-try,2021.2.3,166.13645051591405,
right,1.0,0.75,0,0,0,0,0,0,0,0,0,1,0,10,6,,,,,,,,,,,,,,,5s,213.4099679550127,214.4111807110021,214.4052321340132,None,215.40488151001045,217.8116756970121,215.40488151001045,217.8116756970121,217.8116756970121,None,217.8116756970121,None,space,0.44953153500682674,217.8116756970121,None,2.4049,218.39810163801303,None,,,,,,,007,001,2022_Jun_29_1141,2-25_cond_decay_EYE-try,2021.2.3,166.13645051591405,
right,0.75,1.0,1,0,0,0,0,0,0,0,0,1,1,11,9,,,,,,,,,,,,,,,5s,219.4525847310142,220.45346531701216,220.4418572200084,None,221.44123950001085,222.27749976800987,221.44123950001085,222.27749976800987,222.27749976800987,None,222.27749976800987,None,space,0.503707604992087,222.27749976800987,None,0.8352,222.91887070600933,None,,,,,,,007,001,2022_Jun_29_1141,2-25_cond_decay_EYE-try,2021.2.3,166.13645051591405,
left,0.75,1.0,0,0,0,0,0,0,0,0,0,1,2,12,5,,,,,,,,,,,,,,,5s,223.97399510300602,224.97463136901206,224.96236660100112,None,225.96211716700054,227.01674677101255,225.96211716700054,227.01674677101255,227.01674677101255,None,227.01674677101255,None,space,0.38046898000175133,227.01674677101255,None,1.0553,227.52662015901296,None,,,,,,,007,001,2022_Jun_29_1141,2-25_cond_decay_EYE-try,2021.2.3,166.13645051591405,
right,1.0,0.75,0,0,0,0,0,0,0,0,0,1,3,13,1,,,,,,,,,,,,,,,5s,228.5855035380082,229.5866613380058,229.58075345300313,None,230.58059325600334,235.4155827830109,230.58059325600334,235.4155827830109,235.4100207240117,None,235.4100207240117,None,space,0.467191327988985,235.4100207240117,None,4.8253,236.00472052000987,None,,,,,,,007,001,2022_Jun_29_1141,2-25_cond_decay_EYE-try,2021.2.3,166.13645051591405,
left,0.75,1.0,0,0,0,0,0,0,0,0,0,1,4,14,2,,,,,,,,,,,,,,,5s,237.05844942800468,238.05940391801414,238.04692902200622,None,239.0475676900096,243.77486386000237,239.0475676900096,243.77486386000237,243.77486386000237,None,243.77486386000237,None,space,0.3823544619954191,243.77486386000237,None,4.7272,244.29426231101388,None,,,,,,,007,001,2022_Jun_29_1141,2-25_cond_decay_EYE-try,2021.2.3,166.13645051591405,
left,1.0,0.75,1,0,0,0,0,0,0,0,0,1,5,15,0,,,,,,,,,,,,,,,5s,245.34933685600117,246.3502346000023,246.3445612640062,None,247.3442682820023,251.2347306570009,247.3442682820023,251.2347306570009,251.2347306570009,None,251.2347306570009,None,space,0.6104953969916096,251.2347306570009,None,3.8916,251.9796933880134,None,,,,,,,007,001,2022_Jun_29_1141,2-25_cond_decay_EYE-try,2021.2.3,166.13645051591405,
left,0.75,1.0,0,0,0,0,0,0,0,0,0,1,6,16,4,,,,,,,,,,,,,,,5s,253.02792678801052,254.02886975801084,254.02272822101077,None,255.0166432690021,258.4953292370046,255.0166432690021,258.4953292370046,258.50208346800355,None,258.50208346800355,None,space,0.36715274999733083,258.50208346800355,None,3.4787,259.00342973301304,None,,,,,,,007,001,2022_Jun_29_1141,2-25_cond_decay_EYE-try,2021.2.3,166.13645051591405,
right,1.0,0.75,0,0,0,0,0,0,0,0,0,1,7,17,7,,,,,,,,,,,,,,,5s,260.05834498800687,261.05899314601265,261.05292693400406,None,262.0466237340006,265.4474246040045,262.0466237340006,265.4474246040045,265.45281346401316,None,265.45281346401316,None,space,0.4084844129974954,265.45281346401316,None,3.4013,265.99728195100033,None,,,,,,,007,001,2022_Jun_29_1141,2-25_cond_decay_EYE-try,2021.2.3,166.13645051591405,
left,0.75,1.0,0,0,0,0,0,0,0,0,0,1,8,18,3,,,,,,,,,,,,,,,5s,267.05292535500485,268.052558084004,268.04679386201315,None,269.04653723700903,270.6945142800105,269.04653723700903,270.6945142800105,270.6880452530022,None,270.6880452530022,None,space,0.4611838779965183,270.6880452530022,None,1.6413,271.27749082801165,None,,,,,,,007,001,2022_Jun_29_1141,2-25_cond_decay_EYE-try,2021.2.3,166.13645051591405,
right,1.0,0.75,0,0,0,0,0,0,0,0,0,1,9,19,8,,,,,,,,,,,,,,,5s,272.33626973100763,273.33743770301226,273.3315103700006,None,274.3313699510036,276.766449570001,274.3313699510036,276.766449570001,276.76069835301314,None,276.76069835301314,None,space,0.4365278879995458,276.76069835301314,None,2.4266,277.32599050400313,None,,,,,,,007,001,2022_Jun_29_1141,2-25_cond_decay_EYE-try,2021.2.3,166.13645051591405,
,,,,0,0,0,0,0,0,0,0,,,,,,,,,,,,,,,,,,,,,,,,,,,,,,,,,,,,,,,,,,,,,007,001,2022_Jun_29_1141,2-25_cond_decay_EYE-try,2021.2.3,166.13645051591405,
left,1.0,0.75,1,0,0,0,0,1,0,1,0,0,0,0,8,,,,,,,,,278.2210597950034,None,278.2210597950034,None,278.2210597950034,None,10s,280.57343455900264,281.57410259600147,281.5621041500126,None,282.5625668690045,291.1986731490033,282.5625668690045,291.1986731490033,291.1986731490033,None,291.1986731490033,None,None,,291.1986731490033,None,8.6337,292.3306718970125,None,,,,,,,007,001,2022_Jun_29_1141,2-25_cond_decay_EYE-try,2021.2.3,166.13645051591405,
left,0.75,1.0,0,0,0,0,0,1,0,1,0,0,1,1,0,,,,,,,,,,,,,,,10s,293.372399290005,294.37403293300304,294.3680275440129,None,295.36756576100015,297.7118198370008,295.36756576100015,297.7118198370008,297.70623386600346,None,297.70623386600346,None,space,0.4029909960081568,297.70623386600346,None,2.3374,298.247109147007,None,,,,,,,007,001,2022_Jun_29_1141,2-25_cond_decay_EYE-try,2021.2.3,166.13645051591405,
right,1.0,0.75,0,0,0,0,0,1,0,1,0,0,2,2,3,,,,,,,,,,,,,,,10s,299.3004161900026,300.30158878400107,300.2890635020012,None,301.289100332011,303.4226286960038,301.289100332011,303.4226286960038,303.4226286960038,None,303.4226286960038,None,space,0.3585861419996945,303.4226286960038,None,2.1311,303.91753447201336,None,,,,,,,007,001,2022_Jun_29_1141,2-25_cond_decay_EYE-try,2021.2.3,166.13645051591405,
left,1.0,0.75,1,0,0,0,0,1,0,1,0,0,3,3,9,,,,,,,,,,,,,,,10s,304.9739709770074,305.9740533490112,305.967213025011,None,306.9680019610096,311.5916167490068,306.9680019610096,311.5916167490068,311.5916167490068,None,311.5916167490068,None,space,0.4216128550033318,311.5916167490068,None,4.6245,312.1440024550102,None,,,,,,,007,001,2022_Jun_29_1141,2-25_cond_decay_EYE-try,2021.2.3,166.13645051591405,
left,0.75,1.0,0,0,0,0,0,1,0,1,0,0,4,4,2,,,,,,,,,,,,,,,10s,313.19648694701027,314.1978319320042,314.19184342400695,None,315.1920599540026,317.87622889800696,315.1920599540026,317.87622889800696,317.87622889800696,None,317.87622889800696,None,space,0.384997946996009,317.87622889800696,None,2.6842,318.39685475701117,None,,,,,,,007,001,2022_Jun_29_1141,2-25_cond_decay_EYE-try,2021.2.3,166.13645051591405,
left,0.75,1.0,0,0,0,0,0,1,0,1,0,0,5,5,7,,,,,,,,,,,,,,,10s,319.45147679200454,320.4529288949998,320.4405250609998,None,321.4404452190065,322.094670453007,321.4404452190065,322.094670453007,322.094670453007,None,322.094670453007,None,space,0.4785684259986738,322.094670453007,None,0.6535,322.7007153250015,None,,,,,,,007,001,2022_Jun_29_1141,2-25_cond_decay_EYE-try,2021.2.3,166.13645051591405,
right,1.0,0.75,0,0,0,0,0,1,0,1,0,0,6,6,5,,,,,,,,,,,,,,,10s,323.760462767008,324.76164582600177,324.7557029350137,None,325.7552310380124,333.0990095750021,325.7552310380124,333.0990095750021,333.09339613800694,None,333.09339613800694,None,space,0.3438431709946599,333.09339613800694,None,7.3357,333.56740223000816,None,,,,,,,007,001,2022_Jun_29_1141,2-25_cond_decay_EYE-try,2021.2.3,166.13645051591405,
left,0.75,1.0,0,0,0,0,0,1,0,1,0,0,7,7,4,,,,,,,,,,,,,,,10s,334.6218027050054,335.6219848670007,335.61604565200105,None,336.61571927100886,336.9187950980122,336.61571927100886,336.9187950980122,336.9187950980122,None,336.9187950980122,None,space,0.5344963320094394,336.9187950980122,None,0.3022,337.59073072700994,None,,,,,,,007,001,2022_Jun_29_1141,2-25_cond_decay_EYE-try,2021.2.3,166.13645051591405,
right,1.0,0.75,0,0,0,0,0,1,0,1,0,0,8,8,1,,,,,,,,,,,,,,,10s,338.6506464910053,339.6516339200025,339.6458337660006,None,340.64565332200436,340.79784170100174,340.64565332200436,340.79784170100174,340.79784170100174,None,340.79784170100174,None,space,0.4234668089920888,340.79784170100174,None,0.1509,341.3542272949999,None,,,,,,,007,001,2022_Jun_29_1141,2-25_cond_decay_EYE-try,2021.2.3,166.13645051591405,
right,0.75,1.0,1,0,0,0,0,1,0,1,0,0,9,9,6,,,,,,,,,,,,,,,10s,342.40197151699977,343.4035252130125,343.3976932150108,None,344.3979143070028,353.85128014101065,344.3979143070028,353.85128014101065,353.84430972501286,None,353.84430972501286,None,space,0.7529331660043681,353.84430972501286,None,9.4442,354.7352719150076,None,,,,,,,007,001,2022_Jun_29_1141,2-25_cond_decay_EYE-try,2021.2.3,166.13645051591405,
right,1.0,0.75,0,0,0,0,0,1,0,1,0,1,0,10,8,,,,,,,,,,,,,,,10s,355.7857054890046,356.7856160480005,356.7796400220104,None,357.7789966220007,358.83996434501023,357.7789966220007,358.83996434501023,358.83996434501023,None,358.83996434501023,None,space,0.3812673659995198,358.83996434501023,None,1.0593,359.34886106901104,None,,,,,,,007,001,2022_Jun_29_1141,2-25_cond_decay_EYE-try,2021.2.3,166.13645051591405,
left,1.0,0.75,1,0,0,0,0,1,0,1,0,1,1,11,9,,,,,,,,,,,,,,,10s,360.40249434,361.40337509001256,361.3973034140072,None,362.39736080900184,364.94915462601057,362.39736080900184,364.94915462601057,364.94915462601057,None,364.94915462601057,None,space,0.37608920299680904,364.94915462601057,None,2.5483,365.4627066210087,None,,,,,,,007,001,2022_Jun_29_1141,2-25_cond_decay_EYE-try,2021.2.3,166.13645051591405,
left,0.75,1.0,0,0,0,0,0,1,0,1,0,1,2,12,4,,,,,,,,,,,,,,,10s,366.51685722201364,367.5189350950095,367.512029703008,None,368.5125867170136,373.1912411490048,368.5125867170136,373.1912411490048,373.1843474780035,None,373.1843474780035,None,space,0.428973957998096,373.1843474780035,None,4.6672,373.7472040700086,None,,,,,,,007,001,2022_Jun_29_1141,2-25_cond_decay_EYE-try,2021.2.3,166.13645051591405,
right,1.0,0.75,0,0,0,0,0,1,0,1,0,1,3,13,1,,,,,,,,,,,,,,,10s,374.79593978200865,375.79678407500614,375.7850302670122,None,376.7852126650105,385.48241181000776,376.7852126650105,385.48241181000776,385.48241181000776,None,385.48241181000776,None,space,0.6509059970121598,385.48241181000776,None,8.6912,386.2689754340099,None,,,,,,,007,001,2022_Jun_29_1141,2-25_cond_decay_EYE-try,2021.2.3,166.13645051591405,
left,0.75,1.0,0,0,0,0,0,1,0,1,0,1,4,14,2,,,,,,,,,,,,,,,10s,387.3181042070064,388.3185311220004,388.3123780330061,None,389.3118478420074,397.97270589300024,389.3118478420074,397.97270589300024,397.9659270930133,None,397.9659270930133,None,space,0.4313151070091408,397.9659270930133,None,8.6516,398.5345254760032,None,,,,,,,007,001,2022_Jun_29_1141,2-25_cond_decay_EYE-try,2021.2.3,166.13645051591405,
left,0.75,1.0,0,0,0,0,0,1,0,1,0,1,5,15,7,,,,,,,,,,,,,,,10s,399.5901705070137,400.591017253013,400.58439602400176,None,401.5845403580024,410.2677354450134,401.5845403580024,410.2677354450134,410.26181571700727,None,410.26181571700727,None,space,0.41548705199966207,410.26181571700727,None,8.6756,410.81344325501414,None,,,,,,,007,001,2022_Jun_29_1141,2-25_cond_decay_EYE-try,2021.2.3,166.13645051591405,
right,0.75,1.0,1,0,0,0,0,1,0,1,0,1,6,16,6,,,,,,,,,,,,,,,10s,411.8686549960112,412.86958458900335,412.8570726760081,None,413.8576386650093,423.69335114600835,413.8576386650093,423.69335114600835,423.6866482440091,None,423.6866482440091,None,space,0.4786040079925442,423.6866482440091,None,9.8257,424.2941125780053,None,,,,,,,007,001,2022_Jun_29_1141,2-25_cond_decay_EYE-try,2021.2.3,166.13645051591405,
left,0.75,1.0,0,0,0,0,0,1,0,1,0,1,7,17,0,,,,,,,,,,,,,,,10s,425.34718941200117,426.34840330301085,426.342481234009,None,427.3426054700103,435.4509846530127,427.3426054700103,435.4509846530127,435.4454095590045,None,435.4454095590045,None,space,0.43184483899676707,435.4454095590045,None,8.1044,436.013643385013,None,,,,,,,007,001,2022_Jun_29_1141,2-25_cond_decay_EYE-try,2021.2.3,166.13645051591405,
right,1.0,0.75,0,0,0,0,0,1,0,1,0,1,8,18,5,,,,,,,,,,,,,,,10s,437.07370707600785,438.07575502501277,438.06894828200166,None,439.06873170401377,445.1231467920006,439.06873170401377,445.1231467920006,445.1231467920006,None,445.1231467920006,None,space,0.40218200799426995,445.1231467920006,None,6.0527,445.6613155540108,None,,,,,,,007,001,2022_Jun_29_1141,2-25_cond_decay_EYE-try,2021.2.3,166.13645051591405,
right,1.0,0.75,0,0,0,0,0,1,0,1,0,1,9,19,3,,,,,,,,,,,,,,,10s,446.72207323000475,447.7239442930004,447.7113348640123,None,448.71151996000845,453.57783526100684,448.71151996000845,453.57783526100684,453.57119767100085,None,453.57119767100085,None,space,0.42604835399833973,453.57119767100085,None,4.8556,454.1344085560122,None,,,,,,,007,001,2022_Jun_29_1141,2-25_cond_decay_EYE-try,2021.2.3,166.13645051591405,
,,,,0,0,0,0,1,0,1,0,,,,,,,,,,,,,,,,,,,,,,,,,,,,,,,,,,,,,,,,,,,,,007,001,2022_Jun_29_1141,2-25_cond_decay_EYE-try,2021.2.3,166.13645051591405,
right,1.0,0.75,0,0,0,0,0,2,0,2,0,0,0,0,7,,,,,,,,,455.026413057014,None,455.026413057014,None,455.026413057014,None,1s,458.64429794200987,459.64505929200095,459.63898923801025,None,460.638721788011,461.2557855910127,460.638721788011,461.2557855910127,461.24905276700156,None,461.24905276700156,None,space,0.3482786920067156,461.24905276700156,None,0.6073,461.7348501140077,None,,,,,,,007,001,2022_Jun_29_1141,2-25_cond_decay_EYE-try,2021.2.3,166.13645051591405,
right,0.75,1.0,1,0,0,0,0,2,0,2,0,0,1,1,0,,,,,,,,,,,,,,,1s,462.7906733120035,463.78977509100514,463.7836647580116,None,464.78422519000014,465.7710098050011,464.78422519000014,465.7710098050011,465.7642112450121,None,465.7642112450121,None,space,0.39303212400409393,465.7642112450121,None,0.9787,466.2867454560037,None,,,,,,,007,001,2022_Jun_29_1141,2-25_cond_decay_EYE-try,2021.2.3,166.13645051591405,
right,1.0,0.75,0,0,0,0,0,2,0,2,0,0,2,2,6,,,,,,,,,,,,,,,1s,467.33439200901194,468.33575185301015,468.3298784300132,None,469.3291778700077,469.63778335100506,469.3291778700077,469.63778335100506,469.6309229250037,None,469.6309229250037,None,space,0.4223229149938561,469.6309229250037,None,0.3,470.18443017800746,None,,,,,,,007,001,2022_Jun_29_1141,2-25_cond_decay_EYE-try,2021.2.3,166.13645051591405,
right,1.0,0.75,0,0,0,0,0,2,0,2,0,0,3,3,2,,,,,,,,,,,,,,,1s,471.2375603780092,472.23855383000046,472.22596585900465,None,473.23235611600103,473.660950015008,473.23235611600103,473.660950015008,473.655068595006,None,473.655068595006,None,space,0.35818861398729496,473.655068595006,None,0.4216,474.1405219800072,None,,,,,,,007,001,2022_Jun_29_1141,2-25_cond_decay_EYE-try,2021.2.3,166.13645051591405,
left,0.75,1.0,0,0,0,0,0,2,0,2,0,0,4,4,8,,,,,,,,,,,,,,,1s,475.2006689280097,476.20202694801264,476.19016200400074,None,477.1904173010116,478.01470307901036,477.1904173010116,478.01470307901036,478.01470307901036,None,478.01470307901036,None,space,0.42255132300488185,478.01470307901036,None,0.8243,478.5657780060137,None,,,,,,,007,001,2022_Jun_29_1141,2-25_cond_decay_EYE-try,2021.2.3,166.13645051591405,
right,1.0,0.75,0,0,0,0,0,2,0,2,0,0,5,5,9,,,,,,,,,,,,,,,1s,479.6246765370015,480.62667285700445,480.62070743100776,None,481.62030072200287,482.3283043600095,481.62030072200287,482.3283043600095,482.3215371270053,None,482.3215371270053,None,space,0.4277226830017753,482.3215371270053,None,0.6985,482.88590916100657,None,,,,,,,007,001,2022_Jun_29_1141,2-25_cond_decay_EYE-try,2021.2.3,166.13645051591405,
left,1.0,0.75,1,0,0,0,0,2,0,2,0,0,6,6,3,,,,,,,,,,,,,,,1s,483.9458793530066,484.9472850910097,484.9348995080072,None,485.9412760010018,486.5835442420066,485.9412760010018,486.5835442420066,486.576925374,None,486.576925374,None,space,0.6523267900047358,486.576925374,None,0.6321,487.3648468080064,None,,,,,,,007,001,2022_Jun_29_1141,2-25_cond_decay_EYE-try,2021.2.3,166.13645051591405,
left,0.75,1.0,0,0,0,0,0,2,0,2,0,0,7,7,4,,,,,,,,,,,,,,,1s,488.4199112230126,489.4198704090086,489.4141750859999,None,490.4135949629999,491.092919667004,490.4135949629999,491.092919667004,491.092919667004,None,491.092919667004,None,space,0.3923392180004157,491.092919667004,None,0.6769,491.6142111060035,None,,,,,,,007,001,2022_Jun_29_1141,2-25_cond_decay_EYE-try,2021.2.3,166.13645051591405,
right,1.0,0.75,0,0,0,0,0,2,0,2,0,0,8,8,1,,,,,,,,,,,,,,,1s,492.66832763000275,493.6686574030027,493.66195857200364,None,494.6623863700079,495.60650226801226,494.6623863700079,495.60650226801226,495.60083680400567,None,495.60083680400567,None,space,0.3484149439900648,495.60083680400567,None,0.935,496.0853007220139,None,,,,,,,007,001,2022_Jun_29_1141,2-25_cond_decay_EYE-try,2021.2.3,166.13645051591405,
left,0.75,1.0,0,0,0,0,0,2,0,2,0,0,9,9,5,,,,,,,,,,,,,,,1s,497.1395995290077,498.14168303301267,498.1286385280109,None,499.12884711800143,499.45013090501016,499.12884711800143,499.45013090501016,499.45013090501016,None,499.45013090501016,None,space,0.4671137660043314,499.45013090501016,None,0.322,500.0490178880136,None,,,,,,,007,001,2022_Jun_29_1141,2-25_cond_decay_EYE-try,2021.2.3,166.13645051591405,
right,1.0,0.75,0,0,0,0,0,2,0,2,0,1,0,10,6,,,,,,,,,,,,,,,1s,501.10398000200803,502.1042360260035,502.09824434701295,None,503.09851510901353,503.94152624900744,503.09851510901353,503.94152624900744,503.94152624900744,None,503.94152624900744,None,space,0.3117287019995274,503.94152624900744,None,0.8406,504.3886946440034,None,,,,,,,007,001,2022_Jun_29_1141,2-25_cond_decay_EYE-try,2021.2.3,166.13645051591405,
right,1.0,0.75,0,0,0,0,0,2,0,2,0,1,1,11,9,,,,,,,,,,,,,,,1s,505.44295588300156,506.44365649000974,506.4377132750087,None,507.4380935860099,508.4312191360077,507.4380935860099,508.4312191360077,508.42450356700283,None,508.42450356700283,None,space,0.3327656309993472,508.42450356700283,None,0.985,508.89164433200494,None,,,,,,,007,001,2022_Jun_29_1141,2-25_cond_decay_EYE-try,2021.2.3,166.13645051591405,
right,1.0,0.75,0,0,0,0,0,2,0,2,0,1,2,12,2,,,,,,,,,,,,,,,1s,509.94018603200675,510.94145409500925,510.9347644530062,None,511.93542492100096,512.8910706160095,511.93542492100096,512.8910706160095,512.885468212,None,512.885468212,None,space,0.2957917200110387,512.885468212,None,0.9489,513.3106071530055,None,,,,,,,007,001,2022_Jun_29_1141,2-25_cond_decay_EYE-try,2021.2.3,166.13645051591405,
left,0.75,1.0,0,0,0,0,0,2,0,2,0,1,3,13,7,,,,,,,,,,,,,,,1s,514.3638109790045,515.3653704410099,515.3533380090084,None,516.352799499,517.0019723900041,516.352799499,517.0019723900041,517.0074569710123,None,517.0074569710123,None,space,0.34180217199900653,517.0074569710123,None,0.6495,517.4851326900098,None,,,,,,,007,001,2022_Jun_29_1141,2-25_cond_decay_EYE-try,2021.2.3,166.13645051591405,
right,1.0,0.75,0,0,0,0,0,2,0,2,0,1,4,14,1,,,,,,,,,,,,,,,1s,518.5406780740013,519.540405562002,519.5348286990047,None,520.5287959060079,520.8315519900061,520.5287959060079,520.8315519900061,520.8315519900061,None,520.8315519900061,None,space,0.3897078719892306,520.8315519900061,None,0.2988,521.3577430650039,None,,,,,,,007,001,2022_Jun_29_1141,2-25_cond_decay_EYE-try,2021.2.3,166.13645051591405,
left,1.0,0.75,1,0,0,0,0,2,0,2,0,1,5,15,3,,,,,,,,,,,,,,,1s,522.4129161340097,523.413616581005,523.4078424290055,None,524.4074500100105,525.333874398013,524.4074500100105,525.333874398013,525.3271974130039,None,525.3271974130039,None,space,0.46214805298950523,525.3271974130039,None,0.9171,525.915747927007,None,,,,,,,007,001,2022_Jun_29_1141,2-25_cond_decay_EYE-try,2021.2.3,166.13645051591405,
left,0.75,1.0,0,0,0,0,0,2,0,2,0,1,6,16,8,,,,,,,,,,,,,,,1s,526.9697675530042,527.9712635920005,527.9653425900033,None,528.964564023001,529.6742700550094,528.964564023001,529.6742700550094,529.6742700550094,None,529.6742700550094,None,space,0.32298726100998465,529.6742700550094,None,0.71,530.1331703610049,None,,,,,,,007,001,2022_Jun_29_1141,2-25_cond_decay_EYE-try,2021.2.3,166.13645051591405,
left,0.75,1.0,0,0,0,0,0,2,0,2,0,1,7,17,4,,,,,,,,,,,,,,,1s,531.1885716030083,532.1896468790073,532.1835994450084,None,533.1829266910063,533.613163609014,533.1829266910063,533.613163609014,533.613163609014,None,533.613163609014,None,space,0.45609898401016835,533.613163609014,None,0.4287,534.2056576010073,None,,,,,,,007,001,2022_Jun_29_1141,2-25_cond_decay_EYE-try,2021.2.3,166.13645051591405,
left,0.75,1.0,0,0,0,0,0,2,0,2,0,1,8,18,5,,,,,,,,,,,,,,,1s,535.2603031640028,536.2622321330127,536.2499012740009,None,537.2498201420094,537.5955947000039,537.2498201420094,537.5955947000039,537.5955947000039,None,537.5955947000039,None,space,0.5216763189964695,537.5955947000039,None,0.3413,538.2542555790133,None,,,,,,,007,001,2022_Jun_29_1141,2-25_cond_decay_EYE-try,2021.2.3,166.13645051591405,
right,0.75,1.0,1,0,0,0,0,2,0,2,0,1,9,19,0,,,,,,,,,,,,,,,1s,539.3095196210052,540.3104800080037,540.3045878530102,None,541.3040055240126,542.0799128250073,541.3040055240126,542.0799128250073,542.0799128250073,None,542.0799128250073,None,space,0.4773586060036905,542.0799128250073,None,0.7741,542.6849593790103,None,,,,,,,007,001,2022_Jun_29_1141,2-25_cond_decay_EYE-try,2021.2.3,166.13645051591405,
,,,,0,0,0,0,2,0,2,0,,,,,,,,,,,,,,,,,,,,,,,,,,,,,,,,,,,,,,,,,,,,,007,001,2022_Jun_29_1141,2-25_cond_decay_EYE-try,2021.2.3,166.13645051591405,
left,0.75,1.0,0,0,0,0,0,3,0,3,0,0,0,0,1,,,,,,,,,543.5820794930041,None,543.5820794930041,None,543.5820794930041,None,3s,545.0968469630025,546.0980169870018,546.0921443480038,None,547.0919044620096,548.2494624680112,547.0919044620096,548.2494624680112,548.2494624680112,None,548.2494624680112,None,space,0.3557920279999962,548.2494624680112,None,1.1579,548.7397614070069,None,,,,,,,007,001,2022_Jun_29_1141,2-25_cond_decay_EYE-try,2021.2.3,166.13645051591405,
right,1.0,0.75,0,0,0,0,0,3,0,3,0,0,1,1,4,,,,,,,,,,,,,,,3s,549.7941175120068,550.7955754270079,550.7830149580113,None,551.7834829880012,552.8614432020113,551.7834829880012,552.8614432020113,552.8548447920039,None,552.8548447920039,None,space,0.41441704699536785,552.8548447920039,None,1.0678,553.4062147920049,None,,,,,,,007,001,2022_Jun_29_1141,2-25_cond_decay_EYE-try,2021.2.3,166.13645051591405,
left,0.75,1.0,0,0,0,0,0,3,0,3,0,0,2,2,8,,,,,,,,,,,,,,,3s,554.4671410480078,555.4680043390108,555.461330065009,None,556.4622169220092,559.3092341740121,556.4622169220092,559.3092341740121,559.3025283500028,None,559.3025283500028,None,space,0.43073752798954956,559.3025283500028,None,2.8417,559.8614398870122,None,,,,,,,007,001,2022_Jun_29_1141,2-25_cond_decay_EYE-try,2021.2.3,166.13645051591405,
left,0.75,1.0,0,0,0,0,0,3,0,3,0,0,3,3,3,,,,,,,,,,,,,,,3s,560.9088690150093,561.9097265270102,561.8983709930035,None,562.8977245360002,565.5951376850135,562.8977245360002,565.5951376850135,565.5951376850135,None,565.5951376850135,None,space,0.4261988999933237,565.5951376850135,None,2.6926,566.1590463480097,None,,,,,,,007,001,2022_Jun_29_1141,2-25_cond_decay_EYE-try,2021.2.3,166.13645051591405,
left,0.75,1.0,0,0,0,0,0,3,0,3,0,0,4,4,0,,,,,,,,,,,,,,,3s,567.2120724590059,568.2136047150125,568.201107003013,None,569.2012546900078,571.9587167110003,569.2012546900078,571.9587167110003,571.9587167110003,None,571.9587167110003,None,space,0.31054615101311356,571.9587167110003,None,2.7563,572.4053231900034,None,,,,,,,007,001,2022_Jun_29_1141,2-25_cond_decay_EYE-try,2021.2.3,166.13645051591405,
left,1.0,0.75,1,0,0,0,0,3,0,3,0,0,5,5,7,,,,,,,,,,,,,,,3s,573.454526061003,574.4549389260064,574.4428716670081,None,575.4430406419997,576.7943679740129,575.4430406419997,576.7943679740129,576.7943679740129,None,576.7943679740129,None,space,0.41888215599465184,576.7943679740129,None,1.3497,577.3512000110059,None,,,,,,,007,001,2022_Jun_29_1141,2-25_cond_decay_EYE-try,2021.2.3,166.13645051591405,
right,1.0,0.75,0,0,0,0,0,3,0,3,0,0,6,6,6,,,,,,,,,,,,,,,3s,578.411910322,579.4124414320104,579.4011224420101,None,580.4009084460122,581.6428458930022,580.4009084460122,581.6428458930022,581.6428458930022,None,581.6428458930022,None,space,0.3384197569976095,581.6428458930022,None,1.2416,582.1101102670073,None,,,,,,,007,001,2022_Jun_29_1141,2-25_cond_decay_EYE-try,2021.2.3,166.13645051591405,
right,1.0,0.75,0,0,0,0,0,3,0,3,0,0,7,7,9,,,,,,,,,,,,,,,3s,583.1628906630067,584.1640250590135,584.1584040730086,None,585.1581582180079,587.1828553900123,585.1581582180079,587.1828553900123,587.1828553900123,None,587.1828553900123,None,space,0.39047009400383104,587.1828553900123,None,2.0236,587.7038656470104,None,,,,,,,007,001,2022_Jun_29_1141,2-25_cond_decay_EYE-try,2021.2.3,166.13645051591405,
left,0.75,1.0,0,0,0,0,0,3,0,3,0,0,8,8,2,,,,,,,,,,,,,,,3s,588.7634860100079,589.763925421008,589.7517932680057,None,590.7523693080002,591.5217839370016,590.7523693080002,591.5217839370016,591.5217839370016,None,591.5217839370016,None,space,0.37147747100971173,591.5217839370016,None,0.769,592.0291763330024,None,,,,,,,007,001,2022_Jun_29_1141,2-25_cond_decay_EYE-try,2021.2.3,166.13645051591405,
right,1.0,0.75,0,0,0,0,0,3,0,3,0,0,9,9,5,,,,,,,,,,,,,,,3s,593.0908572270127,594.0917118390062,594.0791391350067,None,595.079290736001,598.0674629760033,595.079290736001,598.0674629760033,598.0674629760033,None,598.0674629760033,None,space,0.3298034339968581,598.0674629760033,None,2.9858,598.5322095120064,None,,,,,,,007,001,2022_Jun_29_1141,2-25_cond_decay_EYE-try,2021.2.3,166.13645051591405,
left,0.75,1.0,0,0,0,0,0,3,0,3,0,1,0,10,0,,,,,,,,,,,,,,,3s,599.5882424180018,600.5886909350083,600.5828131040034,None,601.5827864910098,603.7758798640134,601.5827864910098,603.7758798640134,603.7758798640134,None,603.7758798640134,None,space,0.33339094299299177,603.7758798640134,None,2.194,604.237384499007,None,,,,,,,007,001,2022_Jun_29_1141,2-25_cond_decay_EYE-try,2021.2.3,166.13645051591405,
right,1.0,0.75,0,0,0,0,0,3,0,3,0,1,1,11,5,,,,,,,,,,,,,,,3s,605.2964768190141,606.2978477590077,606.2852275420009,None,607.2855824760045,609.6663442550052,607.2855824760045,609.6663442550052,609.6593835490057,None,609.6593835490057,None,space,0.3459491489920765,609.6593835490057,None,2.3727,610.1340146530129,None,,,,,,,007,001,2022_Jun_29_1141,2-25_cond_decay_EYE-try,2021.2.3,166.13645051591405,
right,1.0,0.75,0,0,0,0,0,3,0,3,0,1,2,12,9,,,,,,,,,,,,,,,3s,611.1865692000138,612.1881669310096,612.1765039190068,None,613.1760296160064,615.8248210990132,613.1760296160064,615.8248210990132,615.8248210990132,None,615.8248210990132,None,space,0.4444466589920921,615.8248210990132,None,2.6447,616.4049781430076,None,,,,,,,007,001,2022_Jun_29_1141,2-25_cond_decay_EYE-try,2021.2.3,166.13645051591405,
right,1.0,0.75,0,0,0,0,0,3,0,3,0,1,3,13,4,,,,,,,,,,,,,,,3s,617.4534152140113,618.4549267850089,618.4423587940109,None,619.4427884050092,620.8789905980084,619.4427884050092,620.8789905980084,620.8846365450008,None,620.8846365450008,None,space,0.2966320120031014,620.8846365450008,None,1.4369,621.3143881680007,None,,,,,,,007,001,2022_Jun_29_1141,2-25_cond_decay_EYE-try,2021.2.3,166.13645051591405,
left,0.75,1.0,0,0,0,0,0,3,0,3,0,1,4,14,8,,,,,,,,,,,,,,,3s,622.3644205170131,623.3634437750006,623.3575539450103,None,624.357464257002,626.8002733989997,624.357464257002,626.8002733989997,626.8002733989997,None,626.8002733989997,None,space,0.3729830639931606,626.8002733989997,None,2.4405,627.3034509310091,None,,,,,,,007,001,2022_Jun_29_1141,2-25_cond_decay_EYE-try,2021.2.3,166.13645051591405,
right,1.0,0.75,0,0,0,0,0,3,0,3,0,1,5,15,6,,,,,,,,,,,,,,,3s,628.3569173260039,629.3578671770083,629.3519807300036,None,630.3512395290018,632.9680425480037,630.3512395290018,632.9680425480037,632.9624620850082,None,632.9624620850082,None,space,0.37081240699626505,632.9624620850082,None,2.6074,633.4609775510035,None,,,,,,,007,001,2022_Jun_29_1141,2-25_cond_decay_EYE-try,2021.2.3,166.13645051591405,
left,0.75,1.0,0,0,0,0,0,3,0,3,0,1,6,16,3,,,,,,,,,,,,,,,3s,634.5146099330013,635.5152838280046,635.509495160004,None,636.5092648999998,636.7092204640066,636.5092648999998,636.7092204640066,636.702419194,None,636.702419194,None,space,0.44684117499855347,636.702419194,None,0.192,637.2840953970008,None,,,,,,,007,001,2022_Jun_29_1141,2-25_cond_decay_EYE-try,2021.2.3,166.13645051591405,
left,1.0,0.75,1,0,0,0,0,3,0,3,0,1,7,17,7,,,,,,,,,,,,,,,3s,638.3387199610006,639.3395464350033,639.3273763040052,None,640.3271788630082,642.0786966350133,640.3271788630082,642.0786966350133,642.0786966350133,None,642.0786966350133,None,space,0.36657388099411037,642.0786966350133,None,1.7523,642.5760164590029,None,,,,,,,007,001,2022_Jun_29_1141,2-25_cond_decay_EYE-try,2021.2.3,166.13645051591405,
right,0.75,1.0,1,0,0,0,0,3,0,3,0,1,8,18,1,,,,,,,,,,,,,,,3s,643.6348915000126,644.6365173720114,644.6237266470125,None,645.6240603260085,648.3862982970022,645.6240603260085,648.3862982970022,648.3806539820071,None,648.3806539820071,None,space,0.48868767799285706,648.3806539820071,None,2.7548,649.0043288860033,None,,,,,,,007,001,2022_Jun_29_1141,2-25_cond_decay_EYE-try,2021.2.3,166.13645051591405,
left,0.75,1.0,0,0,0,0,0,3,0,3,0,1,9,19,2,,,,,,,,,,,,,,,3s,650.0653141010116,651.0666012080037,651.0541085450095,None,652.0545220940112,653.5035568510066,652.0545220940112,653.5035568510066,653.5035568510066,None,653.5035568510066,None,space,0.4537111820100108,653.5035568510066,None,1.4464,654.0844652730011,None,,,,,,,007,001,2022_Jun_29_1141,2-25_cond_decay_EYE-try,2021.2.3,166.13645051591405,
,,,,0,0,0,0,3,0,3,0,,,,,,,,,,,,,,,,,,,,,,,,,,,,,,,,,,,,,,,,,,,,,007,001,2022_Jun_29_1141,2-25_cond_decay_EYE-try,2021.2.3,166.13645051591405,
,,,,0,0,0,0,,,,,,,,,,,,,,,,,,,,,,,,,,,,,,,,,,,,,,,,,,,654.9807291580073,None,654.9807291580073,None,654.9807291580073,None,007,001,2022_Jun_29_1141,2-25_cond_decay_EYE-try,2021.2.3,166.13645051591405,
right,1.0,0.75,0,1,0,1,0,0,0,0,0,0,0,0,5,,,,,,,,,659.980264304002,None,659.980264304002,None,659.980264304002,None,10s,667.4961958000058,668.4964171570027,668.4842271470116,None,669.484865757011,677.3816887860012,669.484865757011,677.3816887860012,677.3816887860012,None,677.3816887860012,None,space,0.3676027809997322,677.3816887860012,None,7.8958,677.8835583700129,None,,,,,,,007,001,2022_Jun_29_1141,2-25_cond_decay_EYE-try,2021.2.3,166.13645051591405,
left,0.75,1.0,0,1,0,1,0,0,0,0,0,0,1,1,3,,,,,,,,,,,,,,,10s,678.9318603890133,679.9330069770076,679.9271469740052,None,680.9268520540063,683.9979287940077,680.9268520540063,683.9979287940077,683.9922912480106,None,683.9922912480106,None,space,0.4210725820012158,683.9922912480106,None,3.0639,684.5495072440099,None,,,,,,,007,001,2022_Jun_29_1141,2-25_cond_decay_EYE-try,2021.2.3,166.13645051591405,
right,1.0,0.75,0,1,0,1,0,0,0,0,0,0,2,2,8,,,,,,,,,,,,,,,10s,685.6105737000034,686.6119928630069,686.5994379510084,None,687.5993069120013,693.343164860009,687.5993069120013,693.343164860009,693.33742999901,None,693.33742999901,None,space,0.39583794900681823,693.33742999901,None,5.7359,693.8708140540111,None,,,,,,,007,001,2022_Jun_29_1141,2-25_cond_decay_EYE-try,2021.2.3,166.13645051591405,
right,1.0,0.75,0,1,0,1,0,0,0,0,0,0,3,3,2,,,,,,,,,,,,,,,10s,694.9253661140101,695.9267890760093,695.9141803010134,None,696.9143901940115,706.3209566440055,696.9143901940115,706.3209566440055,706.3209566440055,None,706.3209566440055,None,space,0.6203232450061478,706.3209566440055,None,9.401,707.0767362600018,None,,,,,,,007,001,2022_Jun_29_1141,2-25_cond_decay_EYE-try,2021.2.3,166.13645051591405,
right,0.75,1.0,1,1,0,1,0,0,0,0,0,0,4,4,6,,,,,,,,,,,,,,,10s,708.1252341210056,709.1270277790027,709.1145707510004,None,710.1143626360135,719.6295550470095,710.1143626360135,719.6295550470095,719.6295550470095,None,719.6295550470095,None,space,0.6077205830079038,719.6295550470095,None,9.5144,720.373385406012,None,,,,,,,007,001,2022_Jun_29_1141,2-25_cond_decay_EYE-try,2021.2.3,166.13645051591405,
right,1.0,0.75,0,1,0,1,0,0,0,0,0,0,5,5,7,,,,,,,,,,,,,,,10s,721.4284455410088,722.4294229860097,722.4235951860028,None,723.4237098810117,729.4958693100052,723.4237098810117,729.4958693100052,729.4958693100052,None,729.4958693100052,None,space,0.4214169579936424,729.4958693100052,None,6.0717,730.0527719950042,None,,,,,,,007,001,2022_Jun_29_1141,2-25_cond_decay_EYE-try,2021.2.3,166.13645051591405,
left,0.75,1.0,0,1,0,1,0,0,0,0,0,0,6,6,1,,,,,,,,,,,,,,,10s,731.1080956799997,732.1085166850098,732.101524896003,None,733.1015972310124,742.3567156430072,733.1015972310124,742.3567156430072,742.3567156430072,None,742.3567156430072,None,space,0.8406437439989531,742.3567156430072,None,9.2541,743.325286960011,None,,,,,,,007,001,2022_Jun_29_1141,2-25_cond_decay_EYE-try,2021.2.3,166.13645051591405,
left,0.75,1.0,0,1,0,1,0,0,0,0,0,0,7,7,4,,,,,,,,,,,,,,,10s,744.3736864040111,745.3749071190105,745.3680521190108,None,746.3689985640085,751.4833582290012,746.3689985640085,751.4833582290012,751.4766284990037,None,751.4766284990037,None,space,0.416671409009723,751.4766284990037,None,5.1065,752.0233787140023,None,,,,,,,007,001,2022_Jun_29_1141,2-25_cond_decay_EYE-try,2021.2.3,166.13645051591405,
left,0.75,1.0,0,1,0,1,0,0,0,0,0,0,8,8,9,,,,,,,,,,,,,,,10s,753.0768553119997,754.0778022870072,754.0717241250095,None,755.0718670650094,759.246980742013,755.0718670650094,759.246980742013,759.246980742013,None,759.246980742013,None,space,0.35030983098840807,759.246980742013,None,4.1713,759.7250758210139,None,,,,,,,007,001,2022_Jun_29_1141,2-25_cond_decay_EYE-try,2021.2.3,166.13645051591405,
right,1.0,0.75,0,1,0,1,0,0,0,0,0,0,9,9,0,,,,,,,,,,,,,,,10s,760.7848999760026,761.7862062940112,761.7747248400119,None,762.7741792440065,767.646998154014,762.7741792440065,767.646998154014,767.6401914990129,None,767.6401914990129,None,space,0.5251861319993623,767.6401914990129,None,4.8626,768.2958625740139,None,,,,,,,007,001,2022_Jun_29_1141,2-25_cond_decay_EYE-try,2021.2.3,166.13645051591405,
left,1.0,0.75,1,1,0,1,0,0,0,0,0,1,0,10,5,,,,,,,,,,,,,,,10s,769.3492047880136,770.3503186450107,770.3434681560029,None,771.344418920009,775.9799019530037,771.344418920009,775.9799019530037,775.9732713040139,None,775.9732713040139,None,space,0.5360179739946034,775.9732713040139,None,4.6283,776.6452347390004,None,,,,,,,007,001,2022_Jun_29_1141,2-25_cond_decay_EYE-try,2021.2.3,166.13645051591405,
left,0.75,1.0,0,1,0,1,0,0,0,0,0,1,1,11,4,,,,,,,,,,,,,,,10s,777.706014580006,778.7070162529999,778.6948652300052,None,779.6950833930023,786.9480911130086,779.6950833930023,786.9480911130086,786.9423474500072,None,786.9423474500072,None,space,0.7029519579955377,786.9423474500072,None,7.2444,787.7789717380074,None,,,,,,,007,001,2022_Jun_29_1141,2-25_cond_decay_EYE-try,2021.2.3,166.13645051591405,
left,0.75,1.0,0,1,0,1,0,0,0,0,0,1,2,12,9,,,,,,,,,,,,,,,10s,788.8211981730128,789.8229938980076,789.8109260310011,None,790.8161936230026,798.6942694760073,790.8161936230026,798.6942694760073,798.687430542006,None,798.687430542006,None,space,0.3898586430004798,798.687430542006,None,7.868,799.2154516460141,None,,,,,,,007,001,2022_Jun_29_1141,2-25_cond_decay_EYE-try,2021.2.3,166.13645051591405,
right,1.0,0.75,0,1,0,1,0,0,0,0,0,1,3,13,7,,,,,,,,,,,,,,,10s,800.2700152450125,801.2705037450069,801.2645169919997,None,802.265002641012,808.6882376880094,802.265002641012,808.6882376880094,808.6816160580056,None,808.6816160580056,None,space,0.33968964700761717,808.6816160580056,None,6.4143,809.149323857011,None,,,,,,,007,001,2022_Jun_29_1141,2-25_cond_decay_EYE-try,2021.2.3,166.13645051591405,
left,0.75,1.0,0,1,0,1,0,0,0,0,0,1,4,14,1,,,,,,,,,,,,,,,10s,810.203198209012,811.2044152860035,811.1919618660031,None,812.1925641350099,817.4408106660121,812.1925641350099,817.4408106660121,817.4408106660121,None,817.4408106660121,None,space,0.4284698749979725,817.4408106660121,None,5.248,817.9971408530109,None,,,,,,,007,001,2022_Jun_29_1141,2-25_cond_decay_EYE-try,2021.2.3,166.13645051591405,
right,1.0,0.75,0,1,0,1,0,0,0,0,0,1,5,15,2,,,,,,,,,,,,,,,10s,819.05754282001,820.0587324300141,820.0464122960111,None,821.0462984110054,827.3132592270122,821.0462984110054,827.3132592270122,827.3132592270122,None,827.3132592270122,None,space,0.500026940004318,827.3132592270122,None,6.267,827.9421115050063,None,,,,,,,007,001,2022_Jun_29_1141,2-25_cond_decay_EYE-try,2021.2.3,166.13645051591405,
right,0.75,1.0,1,1,0,1,0,0,0,0,0,1,6,16,6,,,,,,,,,,,,,,,10s,828.9915468130057,829.9918162970134,829.9859152179997,None,830.9857364380005,836.300360579,830.9857364380005,836.300360579,836.300360579,None,836.300360579,None,space,0.5529322829970624,836.300360579,None,5.3153,836.9901063340076,None,,,,,,,007,001,2022_Jun_29_1141,2-25_cond_decay_EYE-try,2021.2.3,166.13645051591405,
right,1.0,0.75,0,1,0,1,0,0,0,0,0,1,7,17,8,,,,,,,,,,,,,,,10s,838.0446469990129,839.0458529150055,839.0399862100021,None,840.0401587720116,843.4889147180074,840.0401587720116,843.4889147180074,843.4889147180074,None,843.4889147180074,None,space,0.44437346600170713,843.4889147180074,None,3.4488,844.0688225580088,None,,,,,,,007,001,2022_Jun_29_1141,2-25_cond_decay_EYE-try,2021.2.3,166.13645051591405,
left,0.75,1.0,0,1,0,1,0,0,0,0,0,1,8,18,3,,,,,,,,,,,,,,,10s,845.1255374370085,846.1246331850125,846.1185945480102,None,847.1185161900066,849.9554321350006,847.1185161900066,849.9554321350006,849.9554321350006,None,849.9554321350006,None,space,0.42586110199044924,849.9554321350006,None,2.8329,850.5170189940109,None,,,,,,,007,001,2022_Jun_29_1141,2-25_cond_decay_EYE-try,2021.2.3,166.13645051591405,
right,1.0,0.75,0,1,0,1,0,0,0,0,0,1,9,19,0,,,,,,,,,,,,,,,10s,851.5781717920036,852.5790436980024,852.5673526710016,None,853.5678126420098,857.8217320990079,853.5678126420098,857.8217320990079,857.8148681020102,None,857.8148681020102,None,space,0.5664264389924938,857.8148681020102,None,4.2426,858.517866707014,None,,,,,,,007,001,2022_Jun_29_1141,2-25_cond_decay_EYE-try,2021.2.3,166.13645051591405,
,,,,1,0,1,0,0,0,0,0,,,,,,,,,,,,,,,,,,,,,,,,,,,,,,,,,,,,,,,,,,,,,007,001,2022_Jun_29_1141,2-25_cond_decay_EYE-try,2021.2.3,166.13645051591405,
left,1.0,0.75,1,1,0,1,0,1,0,1,0,0,0,0,8,,,,,,,,,859.4098224460031,None,859.4098224460031,None,859.4098224460031,None,1s,864.7482479940081,865.7488736760133,865.7430747000035,None,866.7428778250032,867.0578109170019,866.7428778250032,867.0578109170019,867.0510282830073,None,867.0510282830073,None,space,0.39427429300849326,867.0510282830073,None,0.3055,867.578004518,None,,,,,,,007,001,2022_Jun_29_1141,2-25_cond_decay_EYE-try,2021.2.3,166.13645051591405,
right,0.75,1.0,1,1,0,1,0,1,0,1,0,0,1,1,3,,,,,,,,,,,,,,,1s,868.6332057690015,869.6336325100128,869.6211160290113,None,870.6219580390025,871.4759462180082,870.6219580390025,871.4759462180082,871.4759462180082,None,871.4759462180082,None,space,0.4813472520036157,871.4759462180082,None,0.8542,872.0932129040011,None,,,,,,,007,001,2022_Jun_29_1141,2-25_cond_decay_EYE-try,2021.2.3,166.13645051591405,
right,1.0,0.75,0,1,0,1,0,1,0,1,0,0,2,2,0,,,,,,,,,,,,,,,1s,873.143233588009,874.1423725570057,874.1364644620044,None,875.1362914680067,875.5833201790083,875.1362914680067,875.5833201790083,875.5777158380079,None,875.5777158380079,None,space,0.37165708099200856,875.5777158380079,None,0.4384,876.0867541420012,None,,,,,,,007,001,2022_Jun_29_1141,2-25_cond_decay_EYE-try,2021.2.3,166.13645051591405,
left,0.75,1.0,0,1,0,1,0,1,0,1,0,0,3,3,6,,,,,,,,,,,,,,,1s,877.143324322009,878.1427519630088,878.1369709910068,None,879.1363868730114,879.4218015750084,879.1363868730114,879.4218015750084,879.4218015750084,None,879.4218015750084,None,space,0.3915128619992174,879.4218015750084,None,0.2831,879.9425305920013,None,,,,,,,007,001,2022_Jun_29_1141,2-25_cond_decay_EYE-try,2021.2.3,166.13645051591405,
right,1.0,0.75,0,1,0,1,0,1,0,1,0,0,4,4,2,,,,,,,,,,,,,,,1s,881.0017239150038,882.0033274890011,881.9973470340046,None,882.9968661710009,883.8877186890022,882.9968661710009,883.8877186890022,883.8810276120057,None,883.8810276120057,None,space,0.29227040700789075,883.8810276120057,None,0.8832,884.3108633520023,None,,,,,,,007,001,2022_Jun_29_1141,2-25_cond_decay_EYE-try,2021.2.3,166.13645051591405,
left,0.75,1.0,0,1,0,1,0,1,0,1,0,0,5,5,4,,,,,,,,,,,,,,,1s,885.3661659160134,886.366800970005,886.3611764470115,None,887.3608167690109,887.7603214080009,887.3608167690109,887.7603214080009,887.7603214080009,None,887.7603214080009,None,space,0.372972231998574,887.7603214080009,None,0.3973,888.2636348160013,None,,,,,,,007,001,2022_Jun_29_1141,2-25_cond_decay_EYE-try,2021.2.3,166.13645051591405,
right,1.0,0.75,0,1,0,1,0,1,0,1,0,0,6,6,7,,,,,,,,,,,,,,,1s,889.3226370580087,890.3246121870034,890.3121125710022,None,891.3126030850108,891.4761944830097,891.3126030850108,891.4761944830097,891.4761944830097,None,891.4761944830097,None,space,0.4172424229909666,891.4761944830097,None,0.1598,892.0216868250136,None,,,,,,,007,001,2022_Jun_29_1141,2-25_cond_decay_EYE-try,2021.2.3,166.13645051591405,
right,1.0,0.75,0,1,0,1,0,1,0,1,0,0,7,7,9,,,,,,,,,,,,,,,1s,893.0690132230084,894.0702596900082,894.057961715007,None,895.0578853160114,895.4093405230087,895.0578853160114,895.4093405230087,895.4093405230087,None,895.4093405230087,None,space,0.31596654999884777,895.4093405230087,None,0.3471,895.8628178930085,None,,,,,,,007,001,2022_Jun_29_1141,2-25_cond_decay_EYE-try,2021.2.3,166.13645051591405,
left,1.0,0.75,1,1,0,1,0,1,0,1,0,0,8,8,1,,,,,,,,,,,,,,,1s,896.9232045960089,897.9237920240121,897.9179825810133,None,898.9176868470095,899.4876119990076,898.9176868470095,899.4876119990076,899.4807749880129,None,899.4807749880129,None,space,0.38052716200763825,899.4807749880129,None,0.5602,899.990161536014,None,,,,,,,007,001,2022_Jun_29_1141,2-25_cond_decay_EYE-try,2021.2.3,166.13645051591405,
left,0.75,1.0,0,1,0,1,0,1,0,1,0,0,9,9,5,,,,,,,,,,,,,,,1s,901.0398309750017,902.0397501120024,902.0330584750045,None,903.0334518180025,903.6149198610074,903.0334518180025,903.6149198610074,903.6149198610074,None,903.6149198610074,None,space,0.29437673899519723,903.6149198610074,None,0.582,904.039485071,None,,,,,,,007,001,2022_Jun_29_1141,2-25_cond_decay_EYE-try,2021.2.3,166.13645051591405,
right,1.0,0.75,0,1,0,1,0,1,0,1,0,1,0,10,7,,,,,,,,,,,,,,,1s,905.0931985520001,906.094406535005,906.0820704010112,None,907.0816466700053,907.7244489250006,907.0816466700053,907.7244489250006,907.7244489250006,None,907.7244489250006,None,space,0.32086353399790823,907.7244489250006,None,0.6415,908.1730671260011,None,,,,,,,007,001,2022_Jun_29_1141,2-25_cond_decay_EYE-try,2021.2.3,166.13645051591405,
right,1.0,0.75,0,1,0,1,0,1,0,1,0,1,1,11,2,,,,,,,,,,,,,,,1s,909.2261677269998,910.2272921230033,910.2214648540103,None,911.2206103380013,911.6759452460101,911.2206103380013,911.6759452460101,911.6759452460101,None,911.6759452460101,None,space,0.3293519230064703,911.6759452460101,None,0.4528,912.14058036801,None,,,,,,,007,001,2022_Jun_29_1141,2-25_cond_decay_EYE-try,2021.2.3,166.13645051591405,
right,1.0,0.75,0,1,0,1,0,1,0,1,0,1,2,12,9,,,,,,,,,,,,,,,1s,913.1904601900023,914.1910656220134,914.1850030950009,None,915.1842732430086,915.5848825450084,915.1842732430086,915.5848825450084,915.5848825450084,None,915.5848825450084,None,space,0.5484156940074172,915.5848825450084,None,0.401,916.2682876460021,None,,,,,,,007,001,2022_Jun_29_1141,2-25_cond_decay_EYE-try,2021.2.3,166.13645051591405,
left,1.0,0.75,1,1,0,1,0,1,0,1,0,1,3,13,1,,,,,,,,,,,,,,,1s,917.328804898003,918.3300636380009,918.3177722920082,None,919.3174962379999,919.8578049500065,919.3174962379999,919.8578049500065,919.8578049500065,None,919.8578049500065,None,space,0.4515047469903948,919.8578049500065,None,0.5389,920.4395441020024,None,,,,,,,007,001,2022_Jun_29_1141,2-25_cond_decay_EYE-try,2021.2.3,166.13645051591405,
right,0.75,1.0,1,1,0,1,0,1,0,1,0,1,4,14,3,,,,,,,,,,,,,,,1s,921.498389610002,922.5001209550101,922.4873822960071,None,923.4877964340121,923.7290481470118,923.4877964340121,923.7290481470118,923.7224012380029,None,923.7224012380029,None,space,0.6989027300005546,923.7224012380029,None,0.2324,924.5585575610021,None,,,,,,,007,001,2022_Jun_29_1141,2-25_cond_decay_EYE-try,2021.2.3,166.13645051591405,
left,0.75,1.0,0,1,0,1,0,1,0,1,0,1,5,15,8,,,,,,,,,,,,,,,1s,925.6199707240012,926.6206801710068,926.6092115160136,None,927.6082946960087,928.2328921880107,927.6082946960087,928.2328921880107,928.2260775140021,None,928.2260775140021,None,space,0.40323695400729775,928.2260775140021,None,0.6152,928.7656434210076,None,,,,,,,007,001,2022_Jun_29_1141,2-25_cond_decay_EYE-try,2021.2.3,166.13645051591405,
left,0.75,1.0,0,1,0,1,0,1,0,1,0,1,6,16,5,,,,,,,,,,,,,,,1s,929.8210656690062,930.8210886410088,930.8143942400056,None,931.8149457970139,932.3100237410108,931.8149457970139,932.3100237410108,932.3040574490005,None,932.3040574490005,None,space,0.29326628500712104,932.3040574490005,None,0.4878,932.7352551320073,None,,,,,,,007,001,2022_Jun_29_1141,2-25_cond_decay_EYE-try,2021.2.3,166.13645051591405,
left,0.75,1.0,0,1,0,1,0,1,0,1,0,1,7,17,4,,,,,,,,,,,,,,,1s,933.783425571004,934.7840546860098,934.7780414510053,None,935.7780118050141,936.6879377020086,935.7780118050141,936.6879377020086,936.6879377020086,None,936.6879377020086,None,space,0.3493766419996973,936.6879377020086,None,0.9091,937.1657865480083,None,,,,,,,007,001,2022_Jun_29_1141,2-25_cond_decay_EYE-try,2021.2.3,166.13645051591405,
right,1.0,0.75,0,1,0,1,0,1,0,1,0,1,8,18,0,,,,,,,,,,,,,,,1s,938.2273997590091,939.226325325013,939.2146697470016,None,940.2151679980016,940.7723398080125,940.2151679980016,940.7723398080125,940.7723398080125,None,940.7723398080125,None,space,0.39301875699311495,940.7723398080125,None,0.5549,941.2938731750037,None,,,,,,,007,001,2022_Jun_29_1141,2-25_cond_decay_EYE-try,2021.2.3,166.13645051591405,
left,0.75,1.0,0,1,0,1,0,1,0,1,0,1,9,19,6,,,,,,,,,,,,,,,1s,942.3466945990076,943.3477106660139,943.3361876340059,None,944.335498659013,944.839184041004,944.335498659013,944.839184041004,944.839184041004,None,944.839184041004,None,space,0.2941366649902193,944.839184041004,None,0.5028,945.262642821006,None,,,,,,,007,001,2022_Jun_29_1141,2-25_cond_decay_EYE-try,2021.2.3,166.13645051591405,
,,,,1,0,1,0,1,0,1,0,,,,,,,,,,,,,,,,,,,,,,,,,,,,,,,,,,,,,,,,,,,,,007,001,2022_Jun_29_1141,2-25_cond_decay_EYE-try,2021.2.3,166.13645051591405,
right,1.0,0.75,0,1,0,1,0,2,0,2,0,0,0,0,5,,,,,,,,,946.1591416520096,None,946.1591416520096,None,946.1591416520096,None,3s,951.4442010290077,952.4448160740139,952.4388213360071,None,953.4391900320043,955.3288543950039,953.4391900320043,955.3288543950039,955.3221834870055,None,955.3221834870055,None,space,0.41913244100578595,955.3221834870055,None,1.8808,955.8740542600135,None,,,,,,,007,001,2022_Jun_29_1141,2-25_cond_decay_EYE-try,2021.2.3,166.13645051591405,
left,0.75,1.0,0,1,0,1,0,2,0,2,0,0,1,1,6,,,,,,,,,,,,,,,3s,956.9225408710045,957.9234796750097,957.91766168701,None,958.9178592800017,959.1112908440118,958.9178592800017,959.1112908440118,959.1046895370091,None,959.1046895370091,None,space,0.3566924070037203,959.1046895370091,None,0.1834,959.588946363001,None,,,,,,,007,001,2022_Jun_29_1141,2-25_cond_decay_EYE-try,2021.2.3,166.13645051591405,
left,0.75,1.0,0,1,0,1,0,2,0,2,0,0,2,2,9,,,,,,,,,,,,,,,3s,960.643108039003,961.6446457880083,961.6385595120082,None,962.6381687210087,962.9057799840084,962.6381687210087,962.9057799840084,962.9111446530005,None,962.9111446530005,None,space,0.4542542879935354,962.9111446530005,None,0.2682,963.4936745630112,None,,,,,,,007,001,2022_Jun_29_1141,2-25_cond_decay_EYE-try,2021.2.3,166.13645051591405,
right,1.0,0.75,0,1,0,1,0,2,0,2,0,0,3,3,3,,,,,,,,,,,,,,,3s,964.552888287013,965.5536547110096,965.5422775930056,None,966.5414326760074,966.9533447060094,966.5414326760074,966.9533447060094,966.9533447060094,None,966.9533447060094,None,space,0.4200372299965238,966.9533447060094,None,0.411,967.5098397070105,None,,,,,,,007,001,2022_Jun_29_1141,2-25_cond_decay_EYE-try,2021.2.3,166.13645051591405,
left,0.75,1.0,0,1,0,1,0,2,0,2,0,0,4,4,4,,,,,,,,,,,,,,,3s,968.5707884630101,969.5714759990078,969.5655561230087,None,970.5661346940033,973.474781803001,970.5661346940033,973.474781803001,973.474781803001,None,973.474781803001,None,space,0.3705281769944122,973.474781803001,None,2.9065,973.972376847014,None,,,,,,,007,001,2022_Jun_29_1141,2-25_cond_decay_EYE-try,2021.2.3,166.13645051591405,
right,1.0,0.75,0,1,0,1,0,2,0,2,0,0,5,5,2,,,,,,,,,,,,,,,3s,975.0311747560045,976.032142918004,976.0260519380099,None,977.0198622919997,978.8144016310107,977.0198622919997,978.8144016310107,978.8144016310107,None,978.8144016310107,None,space,0.4549150390084833,978.8144016310107,None,1.791,979.4071709130076,None,,,,,,,007,001,2022_Jun_29_1141,2-25_cond_decay_EYE-try,2021.2.3,166.13645051591405,
left,0.75,1.0,0,1,0,1,0,2,0,2,0,0,6,6,8,,,,,,,,,,,,,,,3s,980.4610590510129,981.4627865540097,981.456877582008,None,982.4502625040041,985.3115775490005,982.4502625040041,985.3115775490005,985.3172480040084,None,985.3172480040084,None,space,0.8800684859888861,985.3172480040084,None,2.8608,986.3337734950037,None,,,,,,,007,001,2022_Jun_29_1141,2-25_cond_decay_EYE-try,2021.2.3,166.13645051591405,
right,1.0,0.75,0,1,0,1,0,2,0,2,0,0,7,7,7,,,,,,,,,,,,,,,3s,987.3941730170045,988.3960519390093,988.3836200700025,None,989.3833555770107,990.6079547730042,989.3833555770107,990.6079547730042,990.6079547730042,None,990.6079547730042,None,space,0.6373718139948323,990.6079547730042,None,1.2213,991.3820337610086,None,,,,,,,007,001,2022_Jun_29_1141,2-25_cond_decay_EYE-try,2021.2.3,166.13645051591405,
left,1.0,0.75,1,1,0,1,0,2,0,2,0,0,8,8,1,,,,,,,,,,,,,,,3s,992.4387045040057,993.4380301980127,993.4320314260112,None,994.4322338220081,995.4561777580093,994.4322338220081,995.4561777580093,995.4561777580093,None,995.4561777580093,None,space,0.3571357030014042,995.4561777580093,None,1.022,995.9408116310078,None,,,,,,,007,001,2022_Jun_29_1141,2-25_cond_decay_EYE-try,2021.2.3,166.13645051591405,
right,1.0,0.75,0,1,0,1,0,2,0,2,0,0,9,9,0,,,,,,,,,,,,,,,3s,997.0021546090138,998.0022709690093,997.9954238110076,None,998.9952924440004,1000.418935165013,998.9952924440004,1000.418935165013,1000.4122963850095,None,1000.4122963850095,None,space,0.38509869801055174,1000.4122963850095,None,1.4152,1000.933742956011,None,,,,,,,007,001,2022_Jun_29_1141,2-25_cond_decay_EYE-try,2021.2.3,166.13645051591405,
right,1.0,0.75,0,1,0,1,0,2,0,2,0,1,0,10,7,,,,,,,,,,,,,,,3s,1001.9884222540131,1002.9894607280003,1002.9770742120018,None,1003.9780195060011,1005.3412033750064,1003.9780195060011,1005.3412033750064,1005.3412033750064,None,1005.3412033750064,None,space,0.3600977390015032,1005.3412033750064,None,1.3612,1005.8373098480079,None,,,,,,,007,001,2022_Jun_29_1141,2-25_cond_decay_EYE-try,2021.2.3,166.13645051591405,
left,1.0,0.75,1,1,0,1,0,2,0,2,0,1,1,11,1,,,,,,,,,,,,,,,3s,1006.8980405630136,1007.899170018005,1007.892189080012,None,1008.8922443890042,1009.600821414002,1008.8922443890042,1009.600821414002,1009.5940430010087,None,1009.5940430010087,None,space,0.6432787429948803,1009.5940430010087,None,0.6984,1010.3648333590099,None,,,,,,,007,001,2022_Jun_29_1141,2-25_cond_decay_EYE-try,2021.2.3,166.13645051591405,
left,0.75,1.0,0,1,0,1,0,2,0,2,0,1,2,12,9,,,,,,,,,,,,,,,3s,1011.4202018270007,1012.4199829760037,1012.4133806900063,None,1013.4139576640009,1014.9816370800108,1013.4139576640009,1014.9816370800108,1014.9758909140073,None,1014.9758909140073,None,space,0.41343763600161765,1014.9758909140073,None,1.5622,1015.5169494680013,None,,,,,,,007,001,2022_Jun_29_1141,2-25_cond_decay_EYE-try,2021.2.3,166.13645051591405,
right,0.75,1.0,1,1,0,1,0,2,0,2,0,1,3,13,5,,,,,,,,,,,,,,,3s,1016.5763869300135,1017.5772354280052,1017.5648347010138,None,1018.5656457470031,1020.1711553690111,1018.5656457470031,1020.1711553690111,1020.1711553690111,None,1020.1711553690111,None,space,0.49815724199288525,1020.1711553690111,None,1.6013,1020.8060979550064,None,,,,,,,007,001,2022_Jun_29_1141,2-25_cond_decay_EYE-try,2021.2.3,166.13645051591405,
left,0.75,1.0,0,1,0,1,0,2,0,2,0,1,4,14,4,,,,,,,,,,,,,,,3s,1021.866468999011,1022.8681427910051,1022.8557601850043,None,1023.8558337110007,1024.650002800001,1023.8558337110007,1024.650002800001,1024.650002800001,None,1024.650002800001,None,space,0.4513143889926141,1024.650002800001,None,0.7936,1025.2369216900115,None,,,,,,,007,001,2022_Jun_29_1141,2-25_cond_decay_EYE-try,2021.2.3,166.13645051591405,
right,1.0,0.75,0,1,0,1,0,2,0,2,0,1,5,15,0,,,,,,,,,,,,,,,3s,1026.297611632006,1027.2986209520022,1027.2861758460058,None,1028.286030473013,1031.0435956700094,1028.286030473013,1031.0435956700094,1031.0435956700094,None,1031.0435956700094,None,space,0.409799856992322,1031.0435956700094,None,2.7541,1031.5829843540123,None,,,,,,,007,001,2022_Jun_29_1141,2-25_cond_decay_EYE-try,2021.2.3,166.13645051591405,
right,1.0,0.75,0,1,0,1,0,2,0,2,0,1,6,16,2,,,,,,,,,,,,,,,3s,1032.6301871120086,1033.6317512140085,1033.6258059440006,None,1034.6258143550076,1036.043734034014,1034.6258143550076,1036.043734034014,1036.043734034014,None,1036.043734034014,None,space,0.3295868400018662,1036.043734034014,None,1.4191,1036.509052762005,None,,,,,,,007,001,2022_Jun_29_1141,2-25_cond_decay_EYE-try,2021.2.3,166.13645051591405,
left,0.75,1.0,0,1,0,1,0,2,0,2,0,1,7,17,6,,,,,,,,,,,,,,,3s,1037.5704419790127,1038.5706862650113,1038.5649207130045,None,1039.5646951190138,1040.995012645013,1039.5646951190138,1040.995012645013,1040.9882805430098,None,1040.9882805430098,None,space,0.36104967500432394,1040.9882805430098,None,1.4212,1041.4844380890136,None,,,,,,,007,001,2022_Jun_29_1141,2-25_cond_decay_EYE-try,2021.2.3,166.13645051591405,
right,1.0,0.75,0,1,0,1,0,2,0,2,0,1,8,18,3,,,,,,,,,,,,,,,3s,1042.5459794140043,1043.5467923700053,1043.534470840008,None,1044.534878810009,1045.2495337220025,1044.534878810009,1045.2495337220025,1045.242937522009,None,1045.242937522009,None,space,0.42645026301033795,1045.242937522009,None,0.7051,1045.805975923009,None,,,,,,,007,001,2022_Jun_29_1141,2-25_cond_decay_EYE-try,2021.2.3,166.13645051591405,
left,0.75,1.0,0,1,0,1,0,2,0,2,0,1,9,19,8,,,,,,,,,,,,,,,3s,1046.8621385340084,1047.8616755080002,1047.8559803420067,None,1048.8559485860023,1049.298439724007,1048.8559485860023,1049.298439724007,1049.2927156870137,None,1049.2927156870137,None,space,0.38460497300548013,1049.2927156870137,None,0.437,1049.8057453240035,None,,,,,,,007,001,2022_Jun_29_1141,2-25_cond_decay_EYE-try,2021.2.3,166.13645051591405,
,,,,1,0,1,0,2,0,2,0,,,,,,,,,,,,,,,,,,,,,,,,,,,,,,,,,,,,,,,,,,,,,007,001,2022_Jun_29_1141,2-25_cond_decay_EYE-try,2021.2.3,166.13645051591405,
left,0.75,1.0,0,1,0,1,0,3,0,3,0,0,0,0,3,,,,,,,,,1050.6984790160059,None,1050.6984790160059,None,1050.6984790160059,None,5s,1058.6666835320066,1059.6674601220002,1059.6561775430018,None,1060.6560183860129,1065.0311530240142,1060.6560183860129,1065.0311530240142,1065.0311530240142,None,1065.0311530240142,None,space,0.33417571599420626,1065.0311530240142,None,4.3748,1065.502707645006,None,,,,,,,007,001,2022_Jun_29_1141,2-25_cond_decay_EYE-try,2021.2.3,166.13645051591405,
left,1.0,0.75,1,1,0,1,0,3,0,3,0,0,1,1,5,,,,,,,,,,,,,,,5s,1066.5572095950047,1067.5583112140012,1067.5526355370093,None,1068.5523279300105,1071.1342811030045,1068.5523279300105,1071.1342811030045,1071.1286467450118,None,1071.1286467450118,None,space,0.4127502149931388,1071.1286467450118,None,2.5799,1071.6781544850091,None,,,,,,,007,001,2022_Jun_29_1141,2-25_cond_decay_EYE-try,2021.2.3,166.13645051591405,
right,1.0,0.75,0,1,0,1,0,3,0,3,0,0,2,2,4,,,,,,,,,,,,,,,5s,1072.7396081350016,1073.7407280260086,1073.7280062350037,None,1074.7277749200002,1079.049758786001,1074.7277749200002,1079.049758786001,1079.049758786001,None,1079.049758786001,None,space,0.37958407700352836,1079.049758786001,None,4.3212,1079.5634716730128,None,,,,,,,007,001,2022_Jun_29_1141,2-25_cond_decay_EYE-try,2021.2.3,166.13645051591405,
left,0.75,1.0,0,1,0,1,0,3,0,3,0,0,3,3,8,,,,,,,,,,,,,,,5s,1080.6119983710087,1081.6126069550082,1081.6066397870018,None,1082.6064958160132,1084.0375769250095,1082.6064958160132,1084.0375769250095,1084.0375769250095,None,1084.0375769250095,None,space,0.48774747901188675,1084.0375769250095,None,1.4295,1084.6551019350009,None,,,,,,,007,001,2022_Jun_29_1141,2-25_cond_decay_EYE-try,2021.2.3,166.13645051591405,
right,1.0,0.75,0,1,0,1,0,3,0,3,0,0,4,4,7,,,,,,,,,,,,,,,5s,1085.7142862750043,1086.7160655650077,1086.7101358920045,None,1087.7102157320041,1088.8494323540071,1087.7102157320041,1088.8494323540071,1088.8494323540071,None,1088.8494323540071,None,space,0.419893771992065,1088.8494323540071,None,1.1371,1089.4059673830052,None,,,,,,,007,001,2022_Jun_29_1141,2-25_cond_decay_EYE-try,2021.2.3,166.13645051591405,
left,0.75,1.0,0,1,0,1,0,3,0,3,0,0,5,5,1,,,,,,,,,,,,,,,5s,1090.461798577002,1091.4611370769999,1091.4555477400136,None,1092.4549744480028,1096.1943971860019,1092.4549744480028,1096.1943971860019,1096.1943971860019,None,1096.1943971860019,None,space,0.34699457400711253,1096.1943971860019,None,3.7367,1096.6781478270132,None,,,,,,,007,001,2022_Jun_29_1141,2-25_cond_decay_EYE-try,2021.2.3,166.13645051591405,
right,0.75,1.0,1,1,0,1,0,3,0,3,0,0,6,6,6,,,,,,,,,,,,,,,5s,1097.7392010690091,1098.7395984660106,1098.7278322320053,None,1099.727911481008,1103.2552151170094,1099.727911481008,1103.2552151170094,1103.2552151170094,None,1103.2552151170094,None,space,0.4621184170100605,1103.2552151170094,None,3.525,1103.853934646002,None,,,,,,,007,001,2022_Jun_29_1141,2-25_cond_decay_EYE-try,2021.2.3,166.13645051591405,
left,0.75,1.0,0,1,0,1,0,3,0,3,0,0,7,7,0,,,,,,,,,,,,,,,5s,1104.9149330750079,1105.9158026380028,1105.910147898001,None,1106.9092654340056,1110.3821707640018,1106.9092654340056,1110.3821707640018,1110.3821707640018,None,1110.3821707640018,None,space,0.40723235499172006,1110.3821707640018,None,3.4727,1110.9265483880008,None,,,,,,,007,001,2022_Jun_29_1141,2-25_cond_decay_EYE-try,2021.2.3,166.13645051591405,
right,1.0,0.75,0,1,0,1,0,3,0,3,0,0,8,8,2,,,,,,,,,,,,,,,5s,1111.988425106014,1112.9884755500098,1112.9757614380069,None,1113.9757423260016,1117.9763666979998,1113.9757423260016,1117.9763666979998,1117.9763666979998,None,1117.9763666979998,None,space,0.5570487959921593,1117.9763666979998,None,3.9969,1118.6609483480133,None,,,,,,,007,001,2022_Jun_29_1141,2-25_cond_decay_EYE-try,2021.2.3,166.13645051591405,
right,1.0,0.75,0,1,0,1,0,3,0,3,0,0,9,9,9,,,,,,,,,,,,,,,5s,1119.7141257950134,1120.7155713670072,1120.7097087080037,None,1121.709677914012,1122.9806056750094,1121.709677914012,1122.9806056750094,1122.974982071013,None,1122.974982071013,None,space,0.6224307350057643,1122.974982071013,None,1.2628,1123.7279420760024,None,,,,,,,007,001,2022_Jun_29_1141,2-25_cond_decay_EYE-try,2021.2.3,166.13645051591405,
left,0.75,1.0,0,1,0,1,0,3,0,3,0,1,0,10,1,,,,,,,,,,,,,,,5s,1124.787238777004,1125.788609893003,1125.7817996490048,None,1126.7816821340093,1128.9886743210081,1126.7816821340093,1128.9886743210081,1128.9886743210081,None,1128.9886743210081,None,space,0.5367578309960663,1128.9886743210081,None,2.2065,1129.6593723800033,None,,,,,,,007,001,2022_Jun_29_1141,2-25_cond_decay_EYE-try,2021.2.3,166.13645051591405,
right,1.0,0.75,0,1,0,1,0,3,0,3,0,1,1,11,9,,,,,,,,,,,,,,,5s,1130.7146029610012,1131.7154141200008,1131.7088608810009,None,1132.7095045930037,1134.7094657690031,1132.7095045930037,1134.7094657690031,1134.7094657690031,None,1134.7094657690031,None,space,0.4398618060076842,1134.7094657690031,None,2.0002,1135.2787482490094,None,,,,,,,007,001,2022_Jun_29_1141,2-25_cond_decay_EYE-try,2021.2.3,166.13645051591405,
left,1.0,0.75,1,1,0,1,0,3,0,3,0,1,2,12,5,,,,,,,,,,,,,,,5s,1136.3379678830097,1137.3393926250137,1137.3336034290114,None,1138.3331304070016,1139.5881649400108,1138.3331304070016,1139.5881649400108,1139.5881649400108,None,1139.5881649400108,None,space,0.41717046599660534,1139.5881649400108,None,1.2543,1140.1381693820003,None,,,,,,,007,001,2022_Jun_29_1141,2-25_cond_decay_EYE-try,2021.2.3,166.13645051591405,
right,1.0,0.75,0,1,0,1,0,3,0,3,0,1,3,13,2,,,,,,,,,,,,,,,5s,1141.1927190190036,1142.1941988580074,1142.181978809007,None,1143.1818167410092,1146.205697273006,1143.1818167410092,1146.205697273006,1146.205697273006,None,1146.205697273006,None,space,0.367632487002993,1146.205697273006,None,3.0223,1146.7029580650124,None,,,,,,,007,001,2022_Jun_29_1141,2-25_cond_decay_EYE-try,2021.2.3,166.13645051591405,
right,1.0,0.75,0,1,0,1,0,3,0,3,0,1,4,14,4,,,,,,,,,,,,,,,5s,1147.7566198920103,1148.7572628650087,1148.7512739480007,None,1149.75117478201,1150.1012719760038,1149.75117478201,1150.1012719760038,1150.0956080739998,None,1150.0956080739998,None,space,0.5657391899876529,1150.0956080739998,None,0.3421,1150.7981882080057,None,,,,,,,007,001,2022_Jun_29_1141,2-25_cond_decay_EYE-try,2021.2.3,166.13645051591405,
left,0.75,1.0,0,1,0,1,0,3,0,3,0,1,5,15,3,,,,,,,,,,,,,,,5s,1151.8548081270128,1152.8543798760074,1152.8484863890044,None,1153.8482392550068,1155.4291164010065,1153.8482392550068,1155.4291164010065,1155.4224014440115,None,1155.4224014440115,None,space,0.5189352829911513,1155.4224014440115,None,1.5726,1156.0778858700069,None,,,,,,,007,001,2022_Jun_29_1141,2-25_cond_decay_EYE-try,2021.2.3,166.13645051591405,
left,0.75,1.0,0,1,0,1,0,3,0,3,0,1,6,16,8,,,,,,,,,,,,,,,5s,1157.132362016011,1158.1331747440126,1158.1209221070021,None,1159.1267527090095,1162.4416444880044,1159.1267527090095,1162.4416444880044,1162.43479362801,None,1162.43479362801,None,space,0.37054856499889866,1162.43479362801,None,3.3055,1162.932952277013,None,,,,,,,007,001,2022_Jun_29_1141,2-25_cond_decay_EYE-try,2021.2.3,166.13645051591405,
left,0.75,1.0,0,1,0,1,0,3,0,3,0,1,7,17,0,,,,,,,,,,,,,,,5s,1163.9862736740033,1164.9876478900114,1164.981791025013,None,1165.9814568900038,1166.3516105180024,1165.9814568900038,1166.3516105180024,1166.3516105180024,None,1166.3516105180024,None,None,,1166.3516105180024,None,0.3697,1167.4767733150074,None,,,,,,,007,001,2022_Jun_29_1141,2-25_cond_decay_EYE-try,2021.2.3,166.13645051591405,
right,1.0,0.75,0,1,0,1,0,3,0,3,0,1,8,18,7,,,,,,,,,,,,,,,5s,1168.5257139840105,1169.5273631000018,1169.5146714750008,None,1170.5145783980115,1171.8235572610138,1170.5145783980115,1171.8235572610138,1171.8235572610138,None,1171.8235572610138,None,space,0.3178198050009087,1171.8235572610138,None,1.3081,1172.2790185080084,None,,,,,,,007,001,2022_Jun_29_1141,2-25_cond_decay_EYE-try,2021.2.3,166.13645051591405,
right,0.75,1.0,1,1,0,1,0,3,0,3,0,1,9,19,6,,,,,,,,,,,,,,,5s,1173.3312898639997,1174.3329110230115,1174.3270973540057,None,1175.327183047004,1177.0845891780045,1175.327183047004,1177.0845891780045,1177.0845891780045,None,1177.0845891780045,None,space,0.47275851099402644,1177.0845891780045,None,1.7579,1177.6897252250055,None,,,,,,,007,001,2022_Jun_29_1141,2-25_cond_decay_EYE-try,2021.2.3,166.13645051591405,
,,,,1,0,1,0,3,0,3,0,,,,,,,,,,,,,,,,,,,,,,,,,,,,,,,,,,,,,,,,,,,,,007,001,2022_Jun_29_1141,2-25_cond_decay_EYE-try,2021.2.3,166.13645051591405,
,,,,1,0,1,0,,,,,,,,,,,,,,,,,,,,,,,,,,,,,,,,,,,,,,,,,,,1178.5757018360018,None,1178.5757018360018,None,1178.5757018360018,None,007,001,2022_Jun_29_1141,2-25_cond_decay_EYE-try,2021.2.3,166.13645051591405,
left,1.0,0.75,1,2,0,2,0,0,0,0,0,0,0,0,8,,,,,,,,,1183.5862301000016,None,1183.5862301000016,None,1183.5862301000016,None,1s,1188.7379085190041,1189.7392724620004,1189.7324676140124,None,1190.733210589009,1190.8962516930042,1190.733210589009,1190.8962516930042,1190.8894679730001,None,1190.8894679730001,None,space,0.44387923199974466,1190.8894679730001,None,0.1548,1191.4704974360066,None,,,,,,,007,001,2022_Jun_29_1141,2-25_cond_decay_EYE-try,2021.2.3,166.13645051591405,
left,1.0,0.75,1,2,0,2,0,0,0,0,0,0,1,1,9,,,,,,,,,,,,,,,1s,1192.5260219140036,1193.526986236,1193.5146017160005,None,1194.5141917920118,1195.0051412620087,1194.5141917920118,1195.0051412620087,1195.0051412620087,None,1195.0051412620087,None,space,0.29619943599391263,1195.0051412620087,None,0.4863,1195.4283924420015,None,,,,,,,007,001,2022_Jun_29_1141,2-25_cond_decay_EYE-try,2021.2.3,166.13645051591405,
left,0.75,1.0,0,2,0,2,0,0,0,0,0,0,2,2,1,,,,,,,,,,,,,,,1s,1196.483450849002,1197.484495171011,1197.472344889,None,1198.4716615230136,1199.199110489004,1198.4716615230136,1199.199110489004,1199.199110489004,None,1199.199110489004,None,space,0.31824849199620076,1199.199110489004,None,0.7259,1199.6529986020032,None,,,,,,,007,001,2022_Jun_29_1141,2-25_cond_decay_EYE-try,2021.2.3,166.13645051591405,
right,1.0,0.75,0,2,0,2,0,0,0,0,0,0,3,3,2,,,,,,,,,,,,,,,1s,1200.7137481780082,1201.7145196150086,1201.7020759920124,None,1202.702064496014,1203.4845951100142,1202.702064496014,1203.4845951100142,1203.4845951100142,None,1203.4845951100142,None,space,0.31280781800160185,1203.4845951100142,None,0.7816,1203.9271097580058,None,,,,,,,007,001,2022_Jun_29_1141,2-25_cond_decay_EYE-try,2021.2.3,166.13645051591405,
left,0.75,1.0,0,2,0,2,0,0,0,0,0,0,4,4,5,,,,,,,,,,,,,,,1s,1204.981006685004,1205.981631534014,1205.9746283470013,None,1206.9749786870088,1207.3079084440105,1206.9749786870088,1207.3079084440105,1207.3013702480093,None,1207.3013702480093,None,space,0.45604495699808467,1207.3013702480093,None,0.3248,1207.8947863000067,None,,,,,,,007,001,2022_Jun_29_1141,2-25_cond_decay_EYE-try,2021.2.3,166.13645051591405,
right,1.0,0.75,0,2,0,2,0,0,0,0,0,0,5,5,0,,,,,,,,,,,,,,,1s,1208.9556199840008,1209.957147431007,1209.9447663080064,None,1210.9508189210028,1211.60461222101,1210.9508189210028,1211.60461222101,1211.597519545001,None,1211.597519545001,None,space,0.3678824369999347,1211.597519545001,None,0.644,1212.1008243720134,None,,,,,,,007,001,2022_Jun_29_1141,2-25_cond_decay_EYE-try,2021.2.3,166.13645051591405,
right,0.75,1.0,1,2,0,2,0,0,0,0,0,0,6,6,7,,,,,,,,,,,,,,,1s,1213.1569203290128,1214.1567213980015,1214.1508184210106,None,1215.1503720680048,1215.4961674840015,1215.1503720680048,1215.4961674840015,1215.4894009010022,None,1215.4894009010022,None,space,0.5239350349875167,1215.4894009010022,None,0.3367,1216.1491005290009,None,,,,,,,007,001,2022_Jun_29_1141,2-25_cond_decay_EYE-try,2021.2.3,166.13645051591405,
right,1.0,0.75,0,2,0,2,0,0,0,0,0,0,7,7,4,,,,,,,,,,,,,,,1s,1217.2048537430092,1218.2048075750063,1218.1987968989997,None,1219.1996263520123,1219.804288144005,1219.1996263520123,1219.804288144005,1219.7973544820125,None,1219.7973544820125,None,space,0.3599941080028657,1219.7973544820125,None,0.5953,1220.2953237950132,None,,,,,,,007,001,2022_Jun_29_1141,2-25_cond_decay_EYE-try,2021.2.3,166.13645051591405,
left,0.75,1.0,0,2,0,2,0,0,0,0,0,0,8,8,3,,,,,,,,,,,,,,,1s,1221.3555475030007,1222.356205728007,1222.3448777970043,None,1223.344366766003,1224.0041268940113,1223.344366766003,1224.0041268940113,1223.997313603002,None,1223.997313603002,None,space,0.2960393329994986,1223.997313603002,None,0.6499,1224.4225085080107,None,,,,,,,007,001,2022_Jun_29_1141,2-25_cond_decay_EYE-try,2021.2.3,166.13645051591405,
left,0.75,1.0,0,2,0,2,0,0,0,0,0,0,9,9,6,,,,,,,,,,,,,,,1s,1225.477443857002,1226.4780226450093,1226.4722594630002,None,1227.471848944013,1228.264077734013,1227.471848944013,1228.264077734013,1228.2584004840028,None,1228.2584004840028,None,space,0.38695008399372455,1228.2584004840028,None,0.7846,1228.774720957008,None,,,,,,,007,001,2022_Jun_29_1141,2-25_cond_decay_EYE-try,2021.2.3,166.13645051591405,
right,1.0,0.75,0,2,0,2,0,0,0,0,0,1,0,10,4,,,,,,,,,,,,,,,1s,1229.8344500280073,1230.835035985001,1230.8291752140067,None,1231.822774655011,1232.611234053009,1231.822774655011,1232.611234053009,1232.6168792450044,None,1232.6168792450044,None,space,0.4044999280013144,1232.6168792450044,None,0.7885,1233.1505496480095,None,,,,,,,007,001,2022_Jun_29_1141,2-25_cond_decay_EYE-try,2021.2.3,166.13645051591405,
left,0.75,1.0,0,2,0,2,0,0,0,0,0,1,1,11,1,,,,,,,,,,,,,,,1s,1234.2101883640134,1235.2107063600124,1235.1984097990062,None,1236.199519359012,1236.7021550630016,1236.199519359012,1236.7021550630016,1236.7021550630016,None,1236.7021550630016,None,space,0.37518848000036087,1236.7021550630016,None,0.5002,1237.204130971004,None,,,,,,,007,001,2022_Jun_29_1141,2-25_cond_decay_EYE-try,2021.2.3,166.13645051591405,
left,0.75,1.0,0,2,0,2,0,0,0,0,0,1,2,12,6,,,,,,,,,,,,,,,1s,1238.2579910760105,1239.259328471002,1239.2534639970108,None,1240.253137563006,1240.809243555006,1240.253137563006,1240.809243555006,1240.8033257370116,None,1240.8033257370116,None,space,0.2900151260109851,1240.8033257370116,None,0.5477,1241.2229863650136,None,,,,,,,007,001,2022_Jun_29_1141,2-25_cond_decay_EYE-try,2021.2.3,166.13645051591405,
right,1.0,0.75,0,2,0,2,0,0,0,0,0,1,3,13,8,,,,,,,,,,,,,,,1s,1242.2761865150096,1243.2776671320025,1243.2720401240076,None,1244.2717021870048,1245.0350945400132,1244.2717021870048,1245.0350945400132,1245.0350945400132,None,1245.0350945400132,None,space,0.32229655000264756,1245.0350945400132,None,0.7627,1245.495157428013,None,,,,,,,007,001,2022_Jun_29_1141,2-25_cond_decay_EYE-try,2021.2.3,166.13645051591405,
left,0.75,1.0,0,2,0,2,0,0,0,0,0,1,4,14,3,,,,,,,,,,,,,,,1s,1246.5487099410093,1247.550025552002,1247.5381057600025,None,1248.538251355014,1249.168699413014,1248.538251355014,1249.168699413014,1249.1618108470138,None,1249.1618108470138,None,space,0.3395250820030924,1249.1618108470138,None,0.6201,1249.6290993870061,None,,,,,,,007,001,2022_Jun_29_1141,2-25_cond_decay_EYE-try,2021.2.3,166.13645051591405,
right,1.0,0.75,0,2,0,2,0,0,0,0,0,1,5,15,0,,,,,,,,,,,,,,,1s,1250.6890554930142,1251.690110155003,1251.6833095620095,None,1252.6831739390036,1253.5741202770005,1252.6831739390036,1253.5741202770005,1253.5741202770005,None,1253.5741202770005,None,space,0.34322073200019076,1253.5741202770005,None,0.8895,1254.0525485470134,None,,,,,,,007,001,2022_Jun_29_1141,2-25_cond_decay_EYE-try,2021.2.3,166.13645051591405,
right,0.75,1.0,1,2,0,2,0,0,0,0,0,1,6,16,7,,,,,,,,,,,,,,,1s,1255.1003390860133,1256.1018236830132,1256.0958828290022,None,1257.0957634950028,1257.6515630510112,1257.0957634950028,1257.6515630510112,1257.6460037470097,None,1257.6460037470097,None,space,0.4873484819981968,1257.6460037470097,None,0.5461,1258.2697591020114,None,,,,,,,007,001,2022_Jun_29_1141,2-25_cond_decay_EYE-try,2021.2.3,166.13645051591405,
right,1.0,0.75,0,2,0,2,0,0,0,0,0,1,7,17,2,,,,,,,,,,,,,,,1s,1259.325272121001,1260.325561664009,1260.319810342,None,1261.3194803229999,1261.895629275008,1261.3194803229999,1261.895629275008,1261.895629275008,None,1261.895629275008,None,space,0.4617652869928861,1261.895629275008,None,0.5759,1262.4940711510135,None,,,,,,,007,001,2022_Jun_29_1141,2-25_cond_decay_EYE-try,2021.2.3,166.13645051591405,
left,0.75,1.0,0,2,0,2,0,0,0,0,0,1,8,18,5,,,,,,,,,,,,,,,1s,1263.554868223,1264.556269188004,1264.5503071120038,None,1265.5499066460034,1266.1120594210079,1265.5499066460034,1266.1120594210079,1266.1065047920129,None,1266.1065047920129,None,space,0.3468502030009404,1266.1065047920129,None,0.5544,1266.5806428330106,None,,,,,,,007,001,2022_Jun_29_1141,2-25_cond_decay_EYE-try,2021.2.3,166.13645051591405,
left,1.0,0.75,1,2,0,2,0,0,0,0,0,1,9,19,9,,,,,,,,,,,,,,,1s,1267.6332169369998,1268.6348805690068,1268.6289611200045,None,1269.6288677760022,1269.8473204170004,1269.6288677760022,1269.8473204170004,1269.8473204170004,None,1269.8473204170004,None,space,0.40603204199578613,1269.8473204170004,None,0.2161,1270.3914871020097,None,,,,,,,007,001,2022_Jun_29_1141,2-25_cond_decay_EYE-try,2021.2.3,166.13645051591405,
,,,,2,0,2,0,0,0,0,0,,,,,,,,,,,,,,,,,,,,,,,,,,,,,,,,,,,,,,,,,,,,,007,001,2022_Jun_29_1141,2-25_cond_decay_EYE-try,2021.2.3,166.13645051591405,
left,1.0,0.75,1,2,0,2,0,1,0,1,0,0,0,0,8,,,,,,,,,1271.2876564020116,None,1271.2876564020116,None,1271.2876564020116,None,10s,1276.6827170000033,1277.6829529880051,1277.6769935379998,None,1278.6710908980021,1278.8652241260133,1278.6710908980021,1278.8652241260133,1278.8707207400003,None,1278.8707207400003,None,None,,1278.8707207400003,None,0.1947,1280.0035942940012,None,,,,,,,007,001,2022_Jun_29_1141,2-25_cond_decay_EYE-try,2021.2.3,166.13645051591405,
left,1.0,0.75,1,2,0,2,0,1,0,1,0,0,1,1,4,,,,,,,,,,,,,,,10s,1281.0466673200135,1282.046423369,1282.0405492260033,None,1283.0409704030026,1284.2345028310083,1283.0409704030026,1284.2345028310083,1284.2278624740138,None,1284.2278624740138,None,space,0.4175680030020885,1284.2278624740138,None,1.1826,1284.778875339005,None,,,,,,,007,001,2022_Jun_29_1141,2-25_cond_decay_EYE-try,2021.2.3,166.13645051591405,
left,0.75,1.0,0,2,0,2,0,1,0,1,0,0,2,2,2,,,,,,,,,,,,,,,10s,1285.8276870070113,1286.8284507960052,1286.8224871860002,None,1287.8226678500068,1291.5735867130134,1287.8226678500068,1291.5735867130134,1291.5735867130134,None,1291.5735867130134,None,space,0.43975827799295075,1291.5735867130134,None,3.7521,1292.1438618660031,None,,,,,,,007,001,2022_Jun_29_1141,2-25_cond_decay_EYE-try,2021.2.3,166.13645051591405,
left,0.75,1.0,0,2,0,2,0,1,0,1,0,0,3,3,7,,,,,,,,,,,,,,,10s,1293.1987278870074,1294.1985938660073,1294.1917741780053,None,1295.1927967910015,1298.2267066750064,1295.1927967910015,1298.2267066750064,1298.2211441850086,None,1298.2211441850086,None,space,0.4082276620029006,1298.2211441850086,None,3.0272,1298.7670319030003,None,,,,,,,007,001,2022_Jun_29_1141,2-25_cond_decay_EYE-try,2021.2.3,166.13645051591405,
right,1.0,0.75,0,2,0,2,0,1,0,1,0,0,4,4,5,,,,,,,,,,,,,,,10s,1299.8209098660009,1300.8223150030099,1300.8166906950064,None,1301.8166548180016,1303.7850896610034,1301.8166548180016,1303.7850896610034,1303.7782561790082,None,1303.7782561790082,None,space,0.8991063790017506,1303.7782561790082,None,1.9607,1304.8155047160108,None,,,,,,,007,001,2022_Jun_29_1141,2-25_cond_decay_EYE-try,2021.2.3,166.13645051591405,
left,0.75,1.0,0,2,0,2,0,1,0,1,0,0,5,5,1,,,,,,,,,,,,,,,10s,1305.8705975860066,1306.8704026860069,1306.864563500014,None,1307.8649979130132,1311.3302138950094,1307.8649979130132,1311.3302138950094,1311.3236976590124,None,1311.3236976590124,None,space,0.3696777250006562,1311.3236976590124,None,3.4581,1311.8274006350111,None,,,,,,,007,001,2022_Jun_29_1141,2-25_cond_decay_EYE-try,2021.2.3,166.13645051591405,
right,0.75,1.0,1,2,0,2,0,1,0,1,0,0,6,6,3,,,,,,,,,,,,,,,10s,1312.8757895320014,1313.8767508340097,1313.8644348880043,None,1314.864787797007,1318.7068019940052,1314.864787797007,1318.7068019940052,1318.7068019940052,None,1318.7068019940052,None,space,0.5145576629874995,1318.7068019940052,None,3.8424,1319.3494414090092,None,,,,,,,007,001,2022_Jun_29_1141,2-25_cond_decay_EYE-try,2021.2.3,166.13645051591405,
right,1.0,0.75,0,2,0,2,0,1,0,1,0,0,7,7,9,,,,,,,,,,,,,,,10s,1320.4025482330035,1321.40410652,1321.3975290990056,None,1322.3985599530133,1330.4763328080007,1322.3985599530133,1330.4763328080007,1330.469677429006,None,1330.469677429006,None,space,0.37568999201175757,1330.469677429006,None,8.0682,1330.9787380600028,None,,,,,,,007,001,2022_Jun_29_1141,2-25_cond_decay_EYE-try,2021.2.3,166.13645051591405,
right,1.0,0.75,0,2,0,2,0,1,0,1,0,0,8,8,6,,,,,,,,,,,,,,,10s,1332.0273315150116,1333.027851167004,1333.016388936012,None,1334.0158773750009,1334.8701757850067,1334.0158773750009,1334.8701757850067,1334.8701757850067,None,1334.8701757850067,None,space,0.32725503999972716,1334.8701757850067,None,0.8517,1335.325344197001,None,,,,,,,007,001,2022_Jun_29_1141,2-25_cond_decay_EYE-try,2021.2.3,166.13645051591405,
left,0.75,1.0,0,2,0,2,0,1,0,1,0,0,9,9,0,,,,,,,,,,,,,,,10s,1336.3839505220094,1337.3857816330128,1337.373051321003,None,1338.3731721990043,1341.69454684401,1338.3731721990043,1341.69454684401,1341.69454684401,None,1341.69454684401,None,space,0.3668128689896548,1341.69454684401,None,3.3215,1342.1965200690029,None,,,,,,,007,001,2022_Jun_29_1141,2-25_cond_decay_EYE-try,2021.2.3,166.13645051591405,
right,1.0,0.75,0,2,0,2,0,1,0,1,0,1,0,10,5,,,,,,,,,,,,,,,10s,1343.256797369002,1344.2581983710115,1344.252248075005,None,1345.2526044730039,1348.6039832950046,1345.2526044730039,1348.6039832950046,1348.6039832950046,None,1348.6039832950046,None,space,0.4814463539951248,1348.6039832950046,None,3.3498,1349.220144114006,None,,,,,,,007,001,2022_Jun_29_1141,2-25_cond_decay_EYE-try,2021.2.3,166.13645051591405,
left,0.75,1.0,0,2,0,2,0,1,0,1,0,1,1,11,0,,,,,,,,,,,,,,,10s,1350.2696066650096,1351.2699256360065,1351.2638709190069,None,1352.2643521999998,1352.646054251003,1352.2643521999998,1352.646054251003,1352.6393105280004,None,1352.6393105280004,None,space,0.40613671600294765,1352.6393105280004,None,0.3713,1353.173808536012,None,,,,,,,007,001,2022_Jun_29_1141,2-25_cond_decay_EYE-try,2021.2.3,166.13645051591405,
right,1.0,0.75,0,2,0,2,0,1,0,1,0,1,2,12,8,,,,,,,,,,,,,,,10s,1354.2325165350048,1355.2337243700022,1355.2278796440078,None,1356.2275313800055,1362.0819399410102,1356.2275313800055,1362.0819399410102,1362.0819399410102,None,1362.0819399410102,None,space,0.3954242100007832,1362.0819399410102,None,5.8529,1362.6141511480091,None,,,,,,,007,001,2022_Jun_29_1141,2-25_cond_decay_EYE-try,2021.2.3,166.13645051591405,
right,0.75,1.0,1,2,0,2,0,1,0,1,0,1,3,13,3,,,,,,,,,,,,,,,10s,1363.669139302001,1364.6704302420112,1364.6647062980046,None,1365.663542816008,1366.39110600001,1365.663542816008,1366.39110600001,1366.384392330001,None,1366.384392330001,None,space,0.7490323539968813,1366.384392330001,None,0.7166,1367.264469604008,None,,,,,,,007,001,2022_Jun_29_1141,2-25_cond_decay_EYE-try,2021.2.3,166.13645051591405,
right,1.0,0.75,0,2,0,2,0,1,0,1,0,1,4,14,9,,,,,,,,,,,,,,,10s,1368.3170480820118,1369.3190094270103,1369.3129923060042,None,1370.3129699960118,1371.5125213400024,1370.3129699960118,1371.5125213400024,1371.5125213400024,None,1371.5125213400024,None,space,0.4768455610028468,1371.5125213400024,None,1.1981,1372.1230222170125,None,,,,,,,007,001,2022_Jun_29_1141,2-25_cond_decay_EYE-try,2021.2.3,166.13645051591405,
left,0.75,1.0,0,2,0,2,0,1,0,1,0,1,5,15,2,,,,,,,,,,,,,,,10s,1373.1780700710078,1374.1794288640085,1374.1725463070034,None,1375.1729552410106,1376.1782848230068,1375.1729552410106,1376.1782848230068,1376.1714126240113,None,1376.1714126240113,None,space,0.5139542419929057,1376.1714126240113,None,0.9954,1376.8197622890002,None,,,,,,,007,001,2022_Jun_29_1141,2-25_cond_decay_EYE-try,2021.2.3,166.13645051591405,
left,0.75,1.0,0,2,0,2,0,1,0,1,0,1,6,16,1,,,,,,,,,,,,,,,10s,1377.8806410860125,1378.8822244650073,1378.8698163820081,None,1379.869748039011,1386.2033324220101,1379.869748039011,1386.2033324220101,1386.2033324220101,None,1386.2033324220101,None,space,0.47411760900286026,1386.2033324220101,None,6.3323,1386.8144346570043,None,,,,,,,007,001,2022_Jun_29_1141,2-25_cond_decay_EYE-try,2021.2.3,166.13645051591405,
right,1.0,0.75,0,2,0,2,0,1,0,1,0,1,7,17,6,,,,,,,,,,,,,,,10s,1387.8754313870013,1388.8758535220113,1388.8700996420084,None,1389.8700097180117,1395.2690511040128,1389.8700097180117,1395.2690511040128,1395.2619408900064,None,1395.2619408900064,None,space,0.36748210799123626,1395.2619408900064,None,5.3906,1395.7659484070027,None,,,,,,,007,001,2022_Jun_29_1141,2-25_cond_decay_EYE-try,2021.2.3,166.13645051591405,
left,0.75,1.0,0,2,0,2,0,1,0,1,0,1,8,18,7,,,,,,,,,,,,,,,10s,1396.826175686001,1397.8275844279997,1397.8216220970062,None,1398.8217316010123,1407.930169313011,1398.8217316010123,1407.930169313011,1407.930169313011,None,1407.930169313011,None,space,0.36319291799736675,1407.930169313011,None,9.1089,1408.4208574770018,None,,,,,,,007,001,2022_Jun_29_1141,2-25_cond_decay_EYE-try,2021.2.3,166.13645051591405,
left,1.0,0.75,1,2,0,2,0,1,0,1,0,1,9,19,4,,,,,,,,,,,,,,,10s,1409.4741814470035,1410.4755471890094,1410.4694520460034,None,1411.469616197006,1420.9061538610113,1411.469616197006,1420.9061538610113,1420.9061538610113,None,1420.9061538610113,None,space,0.3872203459904995,1420.9061538610113,None,9.4363,1421.4208329160028,None,,,,,,,007,001,2022_Jun_29_1141,2-25_cond_decay_EYE-try,2021.2.3,166.13645051591405,
,,,,2,0,2,0,1,0,1,0,,,,,,,,,,,,,,,,,,,,,,,,,,,,,,,,,,,,,,,,,,,,,007,001,2022_Jun_29_1141,2-25_cond_decay_EYE-try,2021.2.3,166.13645051591405,
left,0.75,1.0,0,2,0,2,0,2,0,2,0,0,0,0,3,,,,,,,,,1422.311664408,None,1422.311664408,None,1422.311664408,None,5s,1434.2436425790074,1435.244655980001,1435.233324425004,None,1436.2330861580122,1437.4148442290025,1436.2330861580122,1437.4148442290025,1437.4148442290025,None,1437.4148442290025,None,space,0.3665897809987655,1437.4148442290025,None,1.1804,1437.9180591550103,None,,,,,,,007,001,2022_Jun_29_1141,2-25_cond_decay_EYE-try,2021.2.3,166.13645051591405,
right,1.0,0.75,0,2,0,2,0,2,0,2,0,0,1,1,8,,,,,,,,,,,,,,,5s,1438.9769533360086,1439.9785496430122,1439.9658947770076,None,1440.9657572740107,1445.9418819100101,1440.9657572740107,1445.9418819100101,1445.9418819100101,None,1445.9418819100101,None,space,0.455492597000557,1445.9418819100101,None,4.9744,1446.5342151130026,None,,,,,,,007,001,2022_Jun_29_1141,2-25_cond_decay_EYE-try,2021.2.3,166.13645051591405,
right,1.0,0.75,0,2,0,2,0,2,0,2,0,0,2,2,4,,,,,,,,,,,,,,,5s,1447.5848875540105,1448.590194067001,1448.5777943210123,None,1449.5780896450015,1452.6553864430025,1449.5780896450015,1452.6553864430025,1452.6496924680105,None,1452.6496924680105,None,space,0.3797742559981998,1452.6496924680105,None,3.0714,1453.1644845640112,None,,,,,,,007,001,2022_Jun_29_1141,2-25_cond_decay_EYE-try,2021.2.3,166.13645051591405,
right,1.0,0.75,0,2,0,2,0,2,0,2,0,0,3,3,1,,,,,,,,,,,,,,,5s,1454.2145963920048,1455.2144215200096,1455.2087030980038,None,1456.208709595012,1459.0323061210074,1456.208709595012,1459.0323061210074,1459.025774780006,None,1459.025774780006,None,space,0.5636084750003647,1459.025774780006,None,2.8145,1459.722102825006,None,,,,,,,007,001,2022_Jun_29_1141,2-25_cond_decay_EYE-try,2021.2.3,166.13645051591405,
left,0.75,1.0,0,2,0,2,0,2,0,2,0,0,4,4,6,,,,,,,,,,,,,,,5s,1460.7724878860026,1461.7721350960055,1461.7662269130087,None,1462.7662830340123,1466.5711111520068,1462.7662830340123,1466.5711111520068,1466.5643392560014,None,1466.5643392560014,None,space,0.3610404409992043,1466.5643392560014,None,3.7976,1467.0613969030092,None,,,,,,,007,001,2022_Jun_29_1141,2-25_cond_decay_EYE-try,2021.2.3,166.13645051591405,
left,0.75,1.0,0,2,0,2,0,2,0,2,0,0,5,5,0,,,,,,,,,,,,,,,5s,1468.1164879950084,1469.1169433120085,1469.111060344003,None,1470.1113637610106,1472.4205554380023,1470.1113637610106,1472.4205554380023,1472.4205554380023,None,1472.4205554380023,None,space,0.42482178899808787,1472.4205554380023,None,2.3084,1472.982995592014,None,,,,,,,007,001,2022_Jun_29_1141,2-25_cond_decay_EYE-try,2021.2.3,166.13645051591405,
left,0.75,1.0,0,2,0,2,0,2,0,2,0,0,6,6,5,,,,,,,,,,,,,,,5s,1474.0376934880042,1475.0389134470024,1475.033022499003,None,1476.031961695,1479.2733687530126,1476.031961695,1479.2733687530126,1479.2675492100097,None,1479.2675492100097,None,space,0.44183217799582053,1479.2675492100097,None,3.2321,1479.8435515050078,None,,,,,,,007,001,2022_Jun_29_1141,2-25_cond_decay_EYE-try,2021.2.3,166.13645051591405,
right,0.75,1.0,1,2,0,2,0,2,0,2,0,0,7,7,2,,,,,,,,,,,,,,,5s,1480.8981638230034,1481.8992469010118,1481.8868232940004,None,1482.8865034670016,1485.3409491519997,1482.8865034670016,1485.3409491519997,1485.3409491519997,None,1485.3409491519997,None,space,0.6084183999919333,1485.3409491519997,None,2.4509,1486.0859227720066,None,,,,,,,007,001,2022_Jun_29_1141,2-25_cond_decay_EYE-try,2021.2.3,166.13645051591405,
right,1.0,0.75,0,2,0,2,0,2,0,2,0,0,8,8,9,,,,,,,,,,,,,,,5s,1487.1413869120006,1488.1412669580022,1488.1355783710023,None,1489.13545630101,1491.3227481700014,1489.13545630101,1491.3227481700014,1491.3227481700014,None,1491.3227481700014,None,space,0.6186261869879672,1491.3227481700014,None,2.1867,1492.0790913900128,None,,,,,,,007,001,2022_Jun_29_1141,2-25_cond_decay_EYE-try,2021.2.3,166.13645051591405,
left,1.0,0.75,1,2,0,2,0,2,0,2,0,0,9,9,7,,,,,,,,,,,,,,,5s,1493.1404954200116,1494.1413788940117,1494.1354447600024,None,1495.1349242610013,1495.7713914790074,1495.1349242610013,1495.7713914790074,1495.7713914790074,None,1495.7713914790074,None,space,0.43406200800382067,1495.7713914790074,None,0.6354,1496.3347435020114,None,,,,,,,007,001,2022_Jun_29_1141,2-25_cond_decay_EYE-try,2021.2.3,166.13645051591405,
left,0.75,1.0,0,2,0,2,0,2,0,2,0,1,0,10,3,,,,,,,,,,,,,,,5s,1497.3882022340113,1498.3897742860136,1498.383681618012,None,1499.3833857890131,1503.5352894280077,1499.3833857890131,1503.5352894280077,1503.5352894280077,None,1503.5352894280077,None,space,0.3580910960008623,1503.5352894280077,None,4.1509,1504.0311255780107,None,,,,,,,007,001,2022_Jun_29_1141,2-25_cond_decay_EYE-try,2021.2.3,166.13645051591405,
right,1.0,0.75,0,2,0,2,0,2,0,2,0,1,1,11,4,,,,,,,,,,,,,,,5s,1505.0908837620082,1506.0921871320024,1506.0810171960038,None,1507.0810271870141,1510.2930224459997,1507.0810271870141,1510.2930224459997,1510.2930224459997,None,1510.2930224459997,None,space,0.36035947399795987,1510.2930224459997,None,3.2093,1510.783032930005,None,,,,,,,007,001,2022_Jun_29_1141,2-25_cond_decay_EYE-try,2021.2.3,166.13645051591405,
right,0.75,1.0,1,2,0,2,0,2,0,2,0,1,2,12,2,,,,,,,,,,,,,,,5s,1511.8382198200125,1512.837675903007,1512.831834498007,None,1513.8316647640022,1518.697350862014,1513.8316647640022,1518.697350862014,1518.691175606,None,1518.691175606,None,space,0.4102070189983351,1518.691175606,None,4.8584,1519.2363541630039,None,,,,,,,007,001,2022_Jun_29_1141,2-25_cond_decay_EYE-try,2021.2.3,166.13645051591405,
left,0.75,1.0,0,2,0,2,0,2,0,2,0,1,3,13,5,,,,,,,,,,,,,,,5s,1520.2808096240042,1521.2803288970026,1521.274201223001,None,1522.2738455440121,1526.9830435030017,1522.2738455440121,1526.9830435030017,1526.9830435030017,None,1526.9830435030017,None,space,0.45434190100058913,1526.9830435030017,None,4.71,1527.5696089470002,None,,,,,,,007,001,2022_Jun_29_1141,2-25_cond_decay_EYE-try,2021.2.3,166.13645051591405,
left,0.75,1.0,0,2,0,2,0,2,0,2,0,1,4,14,6,,,,,,,,,,,,,,,5s,1528.6181373,1529.6192562420038,1529.613391898005,None,1530.6136002180137,1530.9696079370042,1530.6136002180137,1530.9696079370042,1530.9638927110063,None,1530.9638927110063,None,None,,1530.9638927110063,None,0.3485,1532.0915065320005,None,,,,,,,007,001,2022_Jun_29_1141,2-25_cond_decay_EYE-try,2021.2.3,166.13645051591405,
right,1.0,0.75,0,2,0,2,0,2,0,2,0,1,5,15,9,,,,,,,,,,,,,,,5s,1533.14544698401,1534.1463885120029,1534.1352324720065,None,1535.1345942280022,1537.8432264970033,1535.1345942280022,1537.8432264970033,1537.8362940040097,None,1537.8362940040097,None,None,,1537.8362940040097,None,2.6987,1538.9579375400062,None,,,,,,,007,001,2022_Jun_29_1141,2-25_cond_decay_EYE-try,2021.2.3,166.13645051591405,
left,0.75,1.0,0,2,0,2,0,2,0,2,0,1,6,16,0,,,,,,,,,,,,,,,5s,1540.0182367020025,1541.0192825960112,1541.0133272950043,None,1542.0135657960054,1542.4432696889999,1542.0135657960054,1542.4432696889999,1542.4432696889999,None,1542.4432696889999,None,space,0.4741236940026283,1542.4432696889999,None,0.4294,1543.0607539610064,None,,,,,,,007,001,2022_Jun_29_1141,2-25_cond_decay_EYE-try,2021.2.3,166.13645051591405,
right,1.0,0.75,0,2,0,2,0,2,0,2,0,1,7,17,1,,,,,,,,,,,,,,,5s,1544.1094849960064,1545.1099669540126,1545.0977889550122,None,1546.0986758550134,1546.91018958301,1546.0986758550134,1546.91018958301,1546.91018958301,None,1546.91018958301,None,space,0.3272332040069159,1546.91018958301,None,0.8066,1547.3641485260014,None,,,,,,,007,001,2022_Jun_29_1141,2-25_cond_decay_EYE-try,2021.2.3,166.13645051591405,
left,1.0,0.75,1,2,0,2,0,2,0,2,0,1,8,18,7,,,,,,,,,,,,,,,5s,1548.4238134440093,1549.425114055004,1549.4137824450008,None,1550.4133508960076,1552.836497893004,1550.4133508960076,1552.836497893004,1552.8296789450105,None,1552.8296789450105,None,space,0.431701913010329,1552.8296789450105,None,2.413,1553.3891256200004,None,,,,,,,007,001,2022_Jun_29_1141,2-25_cond_decay_EYE-try,2021.2.3,166.13645051591405,
right,1.0,0.75,0,2,0,2,0,2,0,2,0,1,9,19,8,,,,,,,,,,,,,,,5s,1554.4421380270069,1555.4435630110092,1555.437739993009,None,1556.4374875310023,1558.9164650660096,1556.4374875310023,1558.9164650660096,1558.9093698430079,None,1558.9093698430079,None,space,0.3200292669935152,1558.9093698430079,None,2.4692,1559.358918569007,None,,,,,,,007,001,2022_Jun_29_1141,2-25_cond_decay_EYE-try,2021.2.3,166.13645051591405,
,,,,2,0,2,0,2,0,2,0,,,,,,,,,,,,,,,,,,,,,,,,,,,,,,,,,,,,,,,,,,,,,007,001,2022_Jun_29_1141,2-25_cond_decay_EYE-try,2021.2.3,166.13645051591405,
right,1.0,0.75,0,2,0,2,0,3,0,3,0,0,0,0,7,,,,,,,,,1560.2539336340124,None,1560.2539336340124,None,1560.2539336340124,None,3s,1572.7392137500137,1573.7400156820077,1573.7288186750084,None,1574.72833215,1576.6189049189998,1574.72833215,1576.6189049189998,1576.6189049189998,None,1576.6189049189998,None,space,0.3304862880031578,1576.6189049189998,None,1.8877,1577.0842019940028,None,,,,,,,007,001,2022_Jun_29_1141,2-25_cond_decay_EYE-try,2021.2.3,166.13645051591405,
left,1.0,0.75,1,2,0,2,0,3,0,3,0,0,1,1,3,,,,,,,,,,,,,,,3s,1578.1387481130078,1579.140440444011,1579.1345629190037,None,1580.1340508720023,1581.2053249880119,1580.1340508720023,1581.2053249880119,1581.1996491720056,None,1581.1996491720056,None,space,0.4618190090113785,1581.1996491720056,None,1.0641,1581.7933517470083,None,,,,,,,007,001,2022_Jun_29_1141,2-25_cond_decay_EYE-try,2021.2.3,166.13645051591405,
left,0.75,1.0,0,2,0,2,0,3,0,3,0,0,2,2,0,,,,,,,,,,,,,,,3s,1582.8423474040028,1583.8427622100135,1583.8367718970112,None,1584.837004666013,1585.8002885530004,1584.837004666013,1585.8002885530004,1585.8002885530004,None,1585.8002885530004,None,space,0.37309622700558975,1585.8002885530004,None,0.961,1586.3089803700132,None,,,,,,,007,001,2022_Jun_29_1141,2-25_cond_decay_EYE-try,2021.2.3,166.13645051591405,
right,1.0,0.75,0,2,0,2,0,3,0,3,0,0,3,3,1,,,,,,,,,,,,,,,3s,1587.3687373880093,1588.370627413009,1588.3639002380078,None,1589.3644205290038,1591.1944213020033,1589.3644205290038,1591.1944213020033,1591.187827162008,None,1591.187827162008,None,space,0.28963300499890465,1591.187827162008,None,1.8202,1591.6120568460028,None,,,,,,,007,001,2022_Jun_29_1141,2-25_cond_decay_EYE-try,2021.2.3,166.13645051591405,
right,1.0,0.75,0,2,0,2,0,3,0,3,0,0,4,4,4,,,,,,,,,,,,,,,3s,1592.6601281130133,1593.6614247430116,1593.6553890040086,None,1594.6555323920038,1596.2065160980128,1594.6555323920038,1596.2065160980128,1596.1998525040108,None,1596.1998525040108,None,space,0.3016123929992318,1596.1998525040108,None,1.5411,1596.6304529050103,None,,,,,,,007,001,2022_Jun_29_1141,2-25_cond_decay_EYE-try,2021.2.3,166.13645051591405,
right,0.75,1.0,1,2,0,2,0,3,0,3,0,0,5,5,8,,,,,,,,,,,,,,,3s,1597.686011681013,1598.6854856250138,1598.6799470940023,None,1599.6790767070052,1602.4183054150053,1599.6790767070052,1602.4183054150053,1602.4183054150053,None,1602.4183054150053,None,space,0.491140924001229,1602.4183054150053,None,2.7386,1603.0367142900068,None,,,,,,,007,001,2022_Jun_29_1141,2-25_cond_decay_EYE-try,2021.2.3,166.13645051591405,
left,0.75,1.0,0,2,0,2,0,3,0,3,0,0,6,6,6,,,,,,,,,,,,,,,3s,1604.0920687420003,1605.0914170110045,1605.0854893700016,None,1606.0854442010022,1608.6542366520007,1606.0854442010022,1608.6542366520007,1608.6472773010028,None,1608.6472773010028,None,space,0.3581153439881746,1608.6472773010028,None,2.5618,1609.133408083013,None,,,,,,,007,001,2022_Jun_29_1141,2-25_cond_decay_EYE-try,2021.2.3,166.13645051591405,
left,0.75,1.0,0,2,0,2,0,3,0,3,0,0,7,7,2,,,,,,,,,,,,,,,3s,1610.1885943040106,1611.1884933980036,1611.1823718800006,None,1612.1824503970129,1612.703643328001,1612.1824503970129,1612.703643328001,1612.703643328001,None,1612.703643328001,None,space,0.4617267300054664,1612.703643328001,None,0.5207,1613.3020524420135,None,,,,,,,007,001,2022_Jun_29_1141,2-25_cond_decay_EYE-try,2021.2.3,166.13645051591405,
left,0.75,1.0,0,2,0,2,0,3,0,3,0,0,8,8,5,,,,,,,,,,,,,,,3s,1614.3505876330019,1615.3518337460118,1615.3402001610084,None,1616.339608868002,1618.466658483012,1616.339608868002,1618.466658483012,1618.466658483012,None,1618.466658483012,None,space,0.38674001999606844,1618.466658483012,None,2.1236,1618.9864912060002,None,,,,,,,007,001,2022_Jun_29_1141,2-25_cond_decay_EYE-try,2021.2.3,166.13645051591405,
right,1.0,0.75,0,2,0,2,0,3,0,3,0,0,9,9,9,,,,,,,,,,,,,,,3s,1620.0354858780047,1621.0365102650103,1621.0248899640137,None,1622.024284092011,1624.818335561009,1622.024284092011,1624.818335561009,1624.818335561009,None,1624.818335561009,None,space,0.3231057119992329,1624.818335561009,None,2.7894,1625.2782462920004,None,,,,,,,007,001,2022_Jun_29_1141,2-25_cond_decay_EYE-try,2021.2.3,166.13645051591405,
right,1.0,0.75,0,2,0,2,0,3,0,3,0,1,0,10,1,,,,,,,,,,,,,,,3s,1626.3258421490027,1627.3270915480098,1627.32111097101,None,1628.3218470640131,1629.3572051880037,1628.3218470640131,1629.3572051880037,1629.3501620330062,None,1629.3501620330062,None,space,0.41527399999904446,1629.3501620330062,None,1.0253,1629.9021412590082,None,,,,,,,007,001,2022_Jun_29_1141,2-25_cond_decay_EYE-try,2021.2.3,166.13645051591405,
left,0.75,1.0,0,2,0,2,0,3,0,3,0,1,1,11,5,,,,,,,,,,,,,,,3s,1630.963035014007,1631.9641314570035,1631.9520071389998,None,1632.95129932501,1634.8915660390048,1632.95129932501,1634.8915660390048,1634.8915660390048,None,1634.8915660390048,None,space,0.32983297800819855,1634.8915660390048,None,1.9386,1635.356188827005,None,,,,,,,007,001,2022_Jun_29_1141,2-25_cond_decay_EYE-try,2021.2.3,166.13645051591405,
right,0.75,1.0,1,2,0,2,0,3,0,3,0,1,2,12,8,,,,,,,,,,,,,,,3s,1636.4108041990112,1637.4125268390053,1637.399887188003,None,1638.3998398760014,1639.0491997410136,1638.3998398760014,1639.0491997410136,1639.0491997410136,None,1639.0491997410136,None,space,0.6602484100003494,1639.0491997410136,None,0.6439,1639.8417283430026,None,,,,,,,007,001,2022_Jun_29_1141,2-25_cond_decay_EYE-try,2021.2.3,166.13645051591405,
left,0.75,1.0,0,2,0,2,0,3,0,3,0,1,3,13,6,,,,,,,,,,,,,,,3s,1640.8956690270134,1641.896594787002,1641.890703240002,None,1642.890870342002,1643.8368345540075,1642.890870342002,1643.8368345540075,1643.8368345540075,None,1643.8368345540075,None,space,0.3845705849962542,1643.8368345540075,None,0.9428,1644.356099512006,None,,,,,,,007,001,2022_Jun_29_1141,2-25_cond_decay_EYE-try,2021.2.3,166.13645051591405,
left,0.75,1.0,0,2,0,2,0,3,0,3,0,1,4,14,2,,,,,,,,,,,,,,,3s,1645.4052129810007,1646.4056844230072,1646.3944943660026,None,1647.3936790290027,1648.6057744179998,1647.3936790290027,1648.6057744179998,1648.6057744179998,None,1648.6057744179998,None,space,0.5356304200104205,1648.6057744179998,None,1.2107,1649.2775019630062,None,,,,,,,007,001,2022_Jun_29_1141,2-25_cond_decay_EYE-try,2021.2.3,166.13645051591405,
left,1.0,0.75,1,2,0,2,0,3,0,3,0,1,5,15,3,,,,,,,,,,,,,,,3s,1650.3320845340058,1651.3333384780126,1651.3272977610031,None,1652.3268279080075,1655.0666890150023,1652.3268279080075,1655.0666890150023,1655.061088028,None,1655.061088028,None,space,0.44831820200488437,1655.061088028,None,2.7351,1655.6470414520008,None,,,,,,,007,001,2022_Jun_29_1141,2-25_cond_decay_EYE-try,2021.2.3,166.13645051591405,
left,0.75,1.0,0,2,0,2,0,3,0,3,0,1,6,16,0,,,,,,,,,,,,,,,3s,1656.702807736001,1657.703388650014,1657.6974624499999,None,1658.6973820560088,1659.5581084190053,1658.6973820560088,1659.5581084190053,1659.5581084190053,None,1659.5581084190053,None,space,0.37531030501122586,1659.5581084190053,None,0.8601,1660.0709046940028,None,,,,,,,007,001,2022_Jun_29_1141,2-25_cond_decay_EYE-try,2021.2.3,166.13645051591405,
right,1.0,0.75,0,2,0,2,0,3,0,3,0,1,7,17,4,,,,,,,,,,,,,,,3s,1661.1257292000082,1662.12671876901,1662.1210342780105,None,1663.120609954014,1664.1699506550067,1663.120609954014,1664.1699506550067,1664.1699506550067,None,1664.1699506550067,None,space,0.36343913299788255,1664.1699506550067,None,1.045,1664.6718506650068,None,,,,,,,007,001,2022_Jun_29_1141,2-25_cond_decay_EYE-try,2021.2.3,166.13645051591405,
right,1.0,0.75,0,2,0,2,0,3,0,3,0,1,8,18,7,,,,,,,,,,,,,,,3s,1665.7213095140032,1666.720623377012,1666.714690852008,None,1667.7151431300008,1668.4483319400024,1667.7151431300008,1668.4483319400024,1668.4483319400024,None,1668.4483319400024,None,space,0.3410730799951125,1668.4483319400024,None,0.7326,1668.9263090350141,None,,,,,,,007,001,2022_Jun_29_1141,2-25_cond_decay_EYE-try,2021.2.3,166.13645051591405,
