attn_cue,left_ob,right_ob,congruent,runs.thisRepN,runs.thisTrialN,runs.thisN,runs.thisIndex,blocks.thisRepN,blocks.thisTrialN,blocks.thisN,blocks.thisIndex,trials.thisRepN,trials.thisTrialN,trials.thisN,trials.thisIndex,welcome.started,welcome.stopped,text_2.started,text_2.stopped,init_key_resp.keys,init_key_resp.rt,init_key_resp.started,init_key_resp.stopped,text_3.started,text_3.stopped,text_4.started,text_4.stopped,text_5.started,text_5.stopped,block_num,texter.started,texter.stopped,cross.started,cross.stopped,left_star.started,left_star.stopped,right_star.started,right_star.stopped,left_2.started,left_2.stopped,right_2.started,right_2.stopped,key_resp.keys,key_resp.rt,key_resp.started,key_resp.stopped,Rand Tim,text.started,text.stopped,end.started,end.stopped,text_6.started,text_6.stopped,text_7.started,text_7.stopped,participant,session,date,expName,psychopyVersion,frameRate,
,,,,,,,,,,,,,,,,431.53734950200305,None,431.53734950200305,None,space,1.598098739006673,431.53734950200305,None,,,,,,,,,,,,,,,,,,,,,,,,,,,,,,,,,010,001,2022_Jul_06_1713,2-25_cond_decay_EYE-try,2021.2.3,163.60758921084565,
left,0.75,1.0,0,0,0,0,0,0,0,0,0,0,0,0,3,,,,,,,,,433.16187696800625,None,433.16187696800625,None,433.16187696800625,None,5s,436.9913069890026,437.99277191300644,437.9868186370004,None,438.9868211990106,441.3002782429976,438.9868211990106,441.3002782429976,441.2946368550038,None,441.2946368550038,None,space,0.5287608109938446,441.2946368550038,None,2.3036,441.973232393997,None,,,,,,,010,001,2022_Jul_06_1713,2-25_cond_decay_EYE-try,2021.2.3,163.60758921084565,
left,0.75,1.0,0,0,0,0,0,0,0,0,0,0,1,1,4,,,,,,,,,,,,,,,5s,443.02163781299896,444.02371904300526,444.0114773649984,None,445.0166364550096,446.16237023400026,445.0166364550096,446.16237023400026,446.1555825670075,None,446.1555825670075,None,space,0.49187488701136317,446.1555825670075,None,1.1385,446.7799914479983,None,,,,,,,010,001,2022_Jul_06_1713,2-25_cond_decay_EYE-try,2021.2.3,163.60758921084565,
right,1.0,0.75,0,0,0,0,0,0,0,0,0,0,2,2,8,,,,,,,,,,,,,,,5s,447.83487202700053,448.83503125699644,448.829176432002,None,449.8289109370089,450.57501699800196,449.8289109370089,450.57501699800196,450.57501699800196,None,450.57501699800196,None,space,0.43236437599989586,450.57501699800196,None,0.7448,451.1426548270101,None,,,,,,,010,001,2022_Jul_06_1713,2-25_cond_decay_EYE-try,2021.2.3,163.60758921084565,
right,0.75,1.0,1,0,0,0,0,0,0,0,0,0,3,3,1,,,,,,,,,,,,,,,5s,452.19911347200105,453.19847384300374,453.1925002640055,None,454.19264763400133,456.325870864006,454.19264763400133,456.325870864006,456.325870864006,None,456.325870864006,None,space,0.6415187810052885,456.325870864006,None,2.1301,457.0955146680062,None,,,,,,,010,001,2022_Jul_06_1713,2-25_cond_decay_EYE-try,2021.2.3,163.60758921084565,
right,1.0,0.75,0,0,0,0,0,0,0,0,0,0,4,4,5,,,,,,,,,,,,,,,5s,458.1490389440005,459.15019214100903,459.14435858700017,None,460.14440282700525,462.40909267999814,460.14440282700525,462.40909267999814,462.4034617639991,None,462.4034617639991,None,space,0.5320071509922855,462.4034617639991,None,2.2578,463.0642085700092,None,,,,,,,010,001,2022_Jul_06_1713,2-25_cond_decay_EYE-try,2021.2.3,163.60758921084565,
left,1.0,0.75,1,0,0,0,0,0,0,0,0,0,5,5,2,,,,,,,,,,,,,,,5s,464.12501009600237,465.1253942070034,465.1197128700005,None,466.12030751100974,467.8342726730043,466.12030751100974,467.8342726730043,467.82753136300016,None,467.82753136300016,None,None,,467.82753136300016,None,1.707,468.96099821401003,None,,,,,,,010,001,2022_Jul_06_1713,2-25_cond_decay_EYE-try,2021.2.3,163.60758921084565,
left,0.75,1.0,0,0,0,0,0,0,0,0,0,0,6,6,9,,,,,,,,,,,,,,,5s,469.9972628000105,470.9989260260045,470.9865252860036,None,471.9864137569966,476.4411199830065,471.9864137569966,476.4411199830065,476.4411199830065,None,476.4411199830065,None,space,0.7422809340059757,476.4411199830065,None,4.4543,477.3183869689965,None,,,,,,,010,001,2022_Jul_06_1713,2-25_cond_decay_EYE-try,2021.2.3,163.60758921084565,
left,0.75,1.0,0,0,0,0,0,0,0,0,0,0,7,7,7,,,,,,,,,,,,,,,5s,478.3666878130025,479.36850506500923,479.3615216909966,None,480.36252666200744,484.4338551740075,480.36252666200744,484.4338551740075,484.4270157209976,None,484.4270157209976,None,space,0.5643857240065699,484.4270157209976,None,4.0624,485.11916568799643,None,,,,,,,010,001,2022_Jul_06_1713,2-25_cond_decay_EYE-try,2021.2.3,163.60758921084565,
right,1.0,0.75,0,0,0,0,0,0,0,0,0,0,8,8,0,,,,,,,,,,,,,,,5s,486.1739023060072,487.1740861200087,487.1683252720104,None,488.1681920920091,489.5744903349987,488.1681920920091,489.5744903349987,489.56698247599707,None,489.56698247599707,None,space,0.5204184839967638,489.56698247599707,None,1.396,490.2166903199977,None,,,,,,,010,001,2022_Jul_06_1713,2-25_cond_decay_EYE-try,2021.2.3,163.60758921084565,
right,1.0,0.75,0,0,0,0,0,0,0,0,0,0,9,9,6,,,,,,,,,,,,,,,5s,491.2695356900076,492.2706067160034,492.2585195110005,None,493.25836854700174,494.63407644000836,493.25836854700174,494.63407644000836,494.63407644000836,None,494.63407644000836,None,space,0.5253783630032558,494.63407644000836,None,1.3712,495.29394131799927,None,,,,,,,010,001,2022_Jul_06_1713,2-25_cond_decay_EYE-try,2021.2.3,163.60758921084565,
right,1.0,0.75,0,0,0,0,0,0,0,0,0,1,0,10,8,,,,,,,,,,,,,,,5s,496.3484047170059,497.34990750500583,497.3370679380023,None,498.3371532489982,498.6772615630034,498.3371532489982,498.6772615630034,498.6772615630034,None,498.6772615630034,None,space,0.6501203420048114,498.6772615630034,None,0.3367,499.4638865599991,None,,,,,,,010,001,2022_Jul_06_1713,2-25_cond_decay_EYE-try,2021.2.3,163.60758921084565,
right,0.75,1.0,1,0,0,0,0,0,0,0,0,1,1,11,1,,,,,,,,,,,,,,,5s,500.51975652099645,501.5188557270012,501.51282532300684,None,502.5131245710072,502.8648386160057,502.5131245710072,502.8648386160057,502.8648386160057,None,502.8648386160057,None,space,0.502561435001553,502.8648386160057,None,0.353,503.50004142800753,None,,,,,,,010,001,2022_Jul_06_1713,2-25_cond_decay_EYE-try,2021.2.3,163.60758921084565,
right,1.0,0.75,0,0,0,0,0,0,0,0,0,1,2,12,6,,,,,,,,,,,,,,,5s,504.54816281700914,505.5499025040044,505.5376121750014,None,506.5374387089978,510.34951030500815,506.5374387089978,510.34951030500815,510.34951030500815,None,510.34951030500815,None,space,0.385875242005568,510.34951030500815,None,3.8076,510.86537772200245,None,,,,,,,010,001,2022_Jul_06_1713,2-25_cond_decay_EYE-try,2021.2.3,163.60758921084565,
left,1.0,0.75,1,0,0,0,0,0,0,0,0,1,3,13,2,,,,,,,,,,,,,,,5s,511.9189417690068,512.9196688969969,512.913084216998,None,513.9127859480068,517.8454496299964,513.9127859480068,517.8454496299964,517.8387449730071,None,517.8387449730071,None,space,0.44865786501031835,517.8387449730071,None,3.9238,518.4164642530086,None,,,,,,,010,001,2022_Jul_06_1713,2-25_cond_decay_EYE-try,2021.2.3,163.60758921084565,
left,0.75,1.0,0,0,0,0,0,0,0,0,0,1,4,14,3,,,,,,,,,,,,,,,5s,519.4697793480009,520.4702402469993,520.4643732810073,None,521.4642491100094,523.8453938010061,521.4642491100094,523.8453938010061,523.838662508002,None,523.838662508002,None,space,0.3927375579951331,523.838662508002,None,2.3728,524.3615406430035,None,,,,,,,010,001,2022_Jul_06_1713,2-25_cond_decay_EYE-try,2021.2.3,163.60758921084565,
left,0.75,1.0,0,0,0,0,0,0,0,0,0,1,5,15,4,,,,,,,,,,,,,,,5s,525.4148882290028,526.4163014310034,526.4094999030058,None,527.4095709190005,531.1190778960008,527.4095709190005,531.1190778960008,531.1190778960008,None,531.1190778960008,None,space,0.3923056589992484,531.1190778960008,None,3.706,531.6399077780079,None,,,,,,,010,001,2022_Jul_06_1713,2-25_cond_decay_EYE-try,2021.2.3,163.60758921084565,
right,1.0,0.75,0,0,0,0,0,0,0,0,0,1,6,16,0,,,,,,,,,,,,,,,5s,532.6995382349996,533.7007675049972,533.6884015120013,None,534.6887188770052,535.8890753860032,534.6887188770052,535.8890753860032,535.8890753860032,None,535.8890753860032,None,space,0.4463313750020461,535.8890753860032,None,1.1983,536.4648059460014,None,,,,,,,010,001,2022_Jul_06_1713,2-25_cond_decay_EYE-try,2021.2.3,163.60758921084565,
left,0.75,1.0,0,0,0,0,0,0,0,0,0,1,7,17,7,,,,,,,,,,,,,,,5s,537.5232450430049,538.5253103580035,538.5132707870071,None,539.5124484999978,539.7248253700091,539.5124484999978,539.7248253700091,539.7248253700091,None,539.7248253700091,None,space,0.5385783479869133,539.7248253700091,None,0.2104,540.3915093730029,None,,,,,,,010,001,2022_Jul_06_1713,2-25_cond_decay_EYE-try,2021.2.3,163.60758921084565,
right,1.0,0.75,0,0,0,0,0,0,0,0,0,1,8,18,5,,,,,,,,,,,,,,,5s,541.4514038909983,542.4523145529965,542.4458599520003,None,543.4464904370107,547.761590285998,543.4464904370107,547.761590285998,547.761590285998,None,547.761590285998,None,space,0.32594787899870425,547.761590285998,None,4.3154,548.220998320001,None,,,,,,,010,001,2022_Jul_06_1713,2-25_cond_decay_EYE-try,2021.2.3,163.60758921084565,
left,0.75,1.0,0,0,0,0,0,0,0,0,0,1,9,19,9,,,,,,,,,,,,,,,5s,549.2706385540077,550.2698264170031,550.2638018709986,None,551.2642741200107,552.088503084,551.2642741200107,552.088503084,552.088503084,None,552.088503084,None,space,0.46288999599346425,552.088503084,None,0.8246,552.6868502889993,None,,,,,,,010,001,2022_Jul_06_1713,2-25_cond_decay_EYE-try,2021.2.3,163.60758921084565,
,,,,0,0,0,0,0,0,0,0,,,,,,,,,,,,,,,,,,,,,,,,,,,,,,,,,,,,,,,,,,,,,010,001,2022_Jul_06_1713,2-25_cond_decay_EYE-try,2021.2.3,163.60758921084565,
right,1.0,0.75,0,0,0,0,0,1,0,1,0,0,0,0,5,,,,,,,,,553.584314245003,None,553.584314245003,None,553.584314245003,None,3s,558.1480206440028,559.1485974420066,559.1373985280079,None,560.1371194930107,561.5606856910017,560.1371194930107,561.5606856910017,561.5606856910017,None,561.5606856910017,None,space,0.34271166400867514,561.5606856910017,None,1.4241,562.0383556330053,None,,,,,,,010,001,2022_Jul_06_1713,2-25_cond_decay_EYE-try,2021.2.3,163.60758921084565,
right,1.0,0.75,0,0,0,0,0,1,0,1,0,0,1,1,4,,,,,,,,,,,,,,,3s,563.0949547280034,564.0940952750097,564.0884766390081,None,565.0880672330095,567.6266866290098,565.0880672330095,567.6266866290098,567.6266866290098,None,567.6266866290098,None,space,0.33275412100192625,567.6266866290098,None,2.5303,568.0928423950099,None,,,,,,,010,001,2022_Jul_06_1713,2-25_cond_decay_EYE-try,2021.2.3,163.60758921084565,
right,0.75,1.0,1,0,0,0,0,1,0,1,0,0,2,2,9,,,,,,,,,,,,,,,3s,569.1422270030016,570.1429911890009,570.1306439050095,None,571.1303091169975,573.4704079119983,571.1303091169975,573.4704079119983,573.4704079119983,None,573.4704079119983,None,space,0.45699454699933995,573.4704079119983,None,2.3397,574.0633290499973,None,,,,,,,010,001,2022_Jul_06_1713,2-25_cond_decay_EYE-try,2021.2.3,163.60758921084565,
left,0.75,1.0,0,0,0,0,0,1,0,1,0,0,3,3,6,,,,,,,,,,,,,,,3s,575.1181921380048,576.1180401599995,576.1122946200048,None,577.1122151160089,577.7120744350104,577.1122151160089,577.7120744350104,577.7120744350104,None,577.7120744350104,None,space,0.503404896997381,577.7120744350104,None,0.5989,578.3479446429992,None,,,,,,,010,001,2022_Jul_06_1713,2-25_cond_decay_EYE-try,2021.2.3,163.60758921084565,
right,1.0,0.75,0,0,0,0,0,1,0,1,0,0,4,4,1,,,,,,,,,,,,,,,3s,579.3964826300071,580.3968914330035,580.3913604510017,None,581.3846649920015,583.3487040800101,581.3846649920015,583.3487040800101,583.3487040800101,None,583.3487040800101,None,space,0.45871371700195596,583.3487040800101,None,1.9608,583.9418186590046,None,,,,,,,010,001,2022_Jul_06_1713,2-25_cond_decay_EYE-try,2021.2.3,163.60758921084565,
left,0.75,1.0,0,0,0,0,0,1,0,1,0,0,5,5,7,,,,,,,,,,,,,,,3s,584.9954348019965,585.9975527610077,585.9850688050064,None,586.9853963200003,588.5854344030085,586.9853963200003,588.5854344030085,588.5854344030085,None,588.5854344030085,None,space,0.37398054100049194,588.5854344030085,None,1.6002,589.092594421003,None,,,,,,,010,001,2022_Jul_06_1713,2-25_cond_decay_EYE-try,2021.2.3,163.60758921084565,
left,0.75,1.0,0,0,0,0,0,1,0,1,0,0,6,6,0,,,,,,,,,,,,,,,3s,590.1419948760013,591.1424387099978,591.1362222769967,None,592.1364020710025,593.6803168050101,592.1364020710025,593.6803168050101,593.6747346870106,None,593.6747346870106,None,space,0.38866382000560407,593.6747346870106,None,1.5345,594.1962842580106,None,,,,,,,010,001,2022_Jul_06_1713,2-25_cond_decay_EYE-try,2021.2.3,163.60758921084565,
left,1.0,0.75,1,0,0,0,0,1,0,1,0,0,7,7,8,,,,,,,,,,,,,,,3s,595.2457987980015,596.2457208370033,596.2398756030016,None,597.239280447,600.2455149090092,597.239280447,600.2455149090092,600.2385983830027,None,600.2385983830027,None,space,0.3208062890043948,600.2385983830027,None,2.9949,600.6925872490101,None,,,,,,,010,001,2022_Jul_06_1713,2-25_cond_decay_EYE-try,2021.2.3,163.60758921084565,
left,0.75,1.0,0,0,0,0,0,1,0,1,0,0,8,8,2,,,,,,,,,,,,,,,3s,601.7467867399973,602.7487433589995,602.7366977180063,None,603.735839454006,606.1486681310053,603.735839454006,606.1486681310053,606.1486681310053,None,606.1486681310053,None,space,0.4187613190006232,606.1486681310053,None,2.4108,606.704430141006,None,,,,,,,010,001,2022_Jul_06_1713,2-25_cond_decay_EYE-try,2021.2.3,163.60758921084565,
right,1.0,0.75,0,0,0,0,0,1,0,1,0,0,9,9,3,,,,,,,,,,,,,,,3s,607.765101270008,608.7667749050015,608.7608884860092,None,609.7609917200025,611.6081645090017,609.7609917200025,611.6081645090017,611.6012255859969,None,611.6012255859969,None,space,0.5101928590011084,611.6012255859969,None,1.8401,612.2439830430085,None,,,,,,,010,001,2022_Jul_06_1713,2-25_cond_decay_EYE-try,2021.2.3,163.60758921084565,
left,0.75,1.0,0,0,0,0,0,1,0,1,0,1,0,10,2,,,,,,,,,,,,,,,3s,613.2982669290068,614.2994406930084,614.2872751740069,None,615.2880622390076,616.2204679639981,615.2880622390076,616.2204679639981,616.2204679639981,None,616.2204679639981,None,space,0.44293978800124023,616.2204679639981,None,0.9317,616.8012755750096,None,,,,,,,010,001,2022_Jul_06_1713,2-25_cond_decay_EYE-try,2021.2.3,163.60758921084565,
left,0.75,1.0,0,0,0,0,0,1,0,1,0,1,1,11,6,,,,,,,,,,,,,,,3s,617.8558723940077,618.8570720150019,618.8512509840075,None,619.8516774949967,620.1114582870068,619.8516774949967,620.1114582870068,620.1114582870068,None,620.1114582870068,None,space,0.4879487819998758,620.1114582870068,None,0.261,620.735298339001,None,,,,,,,010,001,2022_Jul_06_1713,2-25_cond_decay_EYE-try,2021.2.3,163.60758921084565,
right,0.75,1.0,1,0,0,0,0,1,0,1,0,1,2,12,9,,,,,,,,,,,,,,,3s,621.7892550070101,622.790971209004,622.7789482060034,None,623.778822859007,625.7482137570041,623.778822859007,625.7482137570041,625.7482137570041,None,625.7482137570041,None,space,0.3551972739951452,625.7482137570041,None,1.9674,626.2331670389976,None,,,,,,,010,001,2022_Jul_06_1713,2-25_cond_decay_EYE-try,2021.2.3,163.60758921084565,
right,1.0,0.75,0,0,0,0,0,1,0,1,0,1,3,13,3,,,,,,,,,,,,,,,3s,627.286453941997,628.2871216089989,628.2758715039963,None,629.2750210020022,630.4147697430017,629.2750210020022,630.4147697430017,630.4147697430017,None,630.4147697430017,None,space,0.43265238200547174,630.4147697430017,None,1.1382,630.983389401008,None,,,,,,,010,001,2022_Jul_06_1713,2-25_cond_decay_EYE-try,2021.2.3,163.60758921084565,
left,0.75,1.0,0,0,0,0,0,1,0,1,0,1,4,14,7,,,,,,,,,,,,,,,3s,632.0379885110015,633.0391563220037,633.0324809450103,None,634.0331743209972,635.1350301330094,634.0331743209972,635.1350301330094,635.1282083240076,None,635.1282083240076,None,space,0.4552194729913026,635.1282083240076,None,1.0931,635.7162328150007,None,,,,,,,010,001,2022_Jul_06_1713,2-25_cond_decay_EYE-try,2021.2.3,163.60758921084565,
right,1.0,0.75,0,0,0,0,0,1,0,1,0,1,5,15,5,,,,,,,,,,,,,,,3s,636.7707958710089,637.7721516840102,637.7599713500094,None,638.7605950490106,641.2085457920039,638.7605950490106,641.2085457920039,641.2085457920039,None,641.2085457920039,None,space,0.37491016399872024,641.2085457920039,None,2.4478,641.7108478540031,None,,,,,,,010,001,2022_Jul_06_1713,2-25_cond_decay_EYE-try,2021.2.3,163.60758921084565,
left,1.0,0.75,1,0,0,0,0,1,0,1,0,1,6,16,8,,,,,,,,,,,,,,,3s,642.7715557720076,643.7717889129999,643.7657142240059,None,644.766270262,645.0515151620057,644.766270262,645.0515151620057,645.0442006410012,None,645.0442006410012,None,space,0.5151994620100595,645.0442006410012,None,0.2755,645.6875284100097,None,,,,,,,010,001,2022_Jul_06_1713,2-25_cond_decay_EYE-try,2021.2.3,163.60758921084565,
right,1.0,0.75,0,0,0,0,0,1,0,1,0,1,7,17,4,,,,,,,,,,,,,,,3s,646.7462291039992,647.748117754003,647.7414504740009,None,648.741733584,651.0379983780003,648.741733584,651.0379983780003,651.0310216220096,None,651.0310216220096,None,space,0.39240189600968733,651.0310216220096,None,2.287,651.5584132020012,None,,,,,,,010,001,2022_Jul_06_1713,2-25_cond_decay_EYE-try,2021.2.3,163.60758921084565,
right,1.0,0.75,0,0,0,0,0,1,0,1,0,1,8,18,1,,,,,,,,,,,,,,,3s,652.6141303360055,653.6145498120022,653.6086235219991,None,654.6079276960081,657.1541731790057,654.6079276960081,657.1541731790057,657.1541731790057,None,657.1541731790057,None,space,0.34124806700856425,657.1541731790057,None,2.5448,657.6317247789993,None,,,,,,,010,001,2022_Jul_06_1713,2-25_cond_decay_EYE-try,2021.2.3,163.60758921084565,
left,0.75,1.0,0,0,0,0,0,1,0,1,0,1,9,19,0,,,,,,,,,,,,,,,3s,658.686022341004,659.6868413170014,659.6744330000074,None,660.6751461990061,663.3117287479981,660.6751461990061,663.3117287479981,663.3117287479981,None,663.3117287479981,None,space,0.4076879789936356,663.3117287479981,None,2.6354,663.8559139930003,None,,,,,,,010,001,2022_Jul_06_1713,2-25_cond_decay_EYE-try,2021.2.3,163.60758921084565,
,,,,0,0,0,0,1,0,1,0,,,,,,,,,,,,,,,,,,,,,,,,,,,,,,,,,,,,,,,,,,,,,010,001,2022_Jul_06_1713,2-25_cond_decay_EYE-try,2021.2.3,163.60758921084565,
right,1.0,0.75,0,0,0,0,0,2,0,2,0,0,0,0,4,,,,,,,,,664.7528410920058,None,664.7528410920058,None,664.7528410920058,None,10s,667.4679442630004,668.4685070450068,668.4562955060101,None,669.4573305509984,674.5720566030068,669.4573305509984,674.5720566030068,674.5720566030068,None,674.5720566030068,None,space,0.323346801000298,674.5720566030068,None,5.113,675.0315015000087,None,,,,,,,010,001,2022_Jul_06_1713,2-25_cond_decay_EYE-try,2021.2.3,163.60758921084565,
left,0.75,1.0,0,0,0,0,0,2,0,2,0,0,1,1,8,,,,,,,,,,,,,,,10s,676.0923425350047,677.0935875740106,677.0815498970042,None,678.0811558290006,680.1355019960029,678.0811558290006,680.1355019960029,680.1355019960029,None,680.1355019960029,None,space,0.3679240710043814,680.1355019960029,None,2.0511,680.6374785350054,None,,,,,,,010,001,2022_Jul_06_1713,2-25_cond_decay_EYE-try,2021.2.3,163.60758921084565,
right,0.75,1.0,1,0,0,0,0,2,0,2,0,0,2,2,6,,,,,,,,,,,,,,,10s,681.6855518520024,682.6863544509979,682.6751117530075,None,683.6742954110086,692.0014518880052,683.6742954110086,692.0014518880052,692.0014518880052,None,692.0014518880052,None,space,0.34204288000182714,692.0014518880052,None,8.3263,692.479544804999,None,,,,,,,010,001,2022_Jul_06_1713,2-25_cond_decay_EYE-try,2021.2.3,163.60758921084565,
left,0.75,1.0,0,0,0,0,0,2,0,2,0,0,3,3,3,,,,,,,,,,,,,,,10s,693.5340052429965,694.5347877620079,694.5286619600083,None,695.5296318760084,703.9947537270054,695.5296318760084,703.9947537270054,703.9880089880025,None,703.9880089880025,None,space,0.4594076999928802,703.9880089880025,None,8.4574,704.5822101060039,None,,,,,,,010,001,2022_Jul_06_1713,2-25_cond_decay_EYE-try,2021.2.3,163.60758921084565,
left,1.0,0.75,1,0,0,0,0,2,0,2,0,0,4,4,5,,,,,,,,,,,,,,,10s,705.631378806007,706.6320940720034,706.6263059729972,None,707.6256205870013,711.4196924590069,707.6256205870013,711.4196924590069,711.4196924590069,None,711.4196924590069,None,space,0.3957310010009678,711.4196924590069,None,3.7929,711.9521095289965,None,,,,,,,010,001,2022_Jul_06_1713,2-25_cond_decay_EYE-try,2021.2.3,163.60758921084565,
right,1.0,0.75,0,0,0,0,0,2,0,2,0,0,5,5,7,,,,,,,,,,,,,,,10s,713.0121095520008,714.014202448001,714.0017157179973,None,715.0016643480049,718.7228919570043,715.0016643480049,718.7228919570043,718.7228919570043,None,718.7228919570043,None,space,0.40457957300532144,718.7228919570043,None,3.7214,719.260585267999,None,,,,,,,010,001,2022_Jul_06_1713,2-25_cond_decay_EYE-try,2021.2.3,163.60758921084565,
right,1.0,0.75,0,0,0,0,0,2,0,2,0,0,6,6,1,,,,,,,,,,,,,,,10s,720.3160688990029,721.3169426859968,721.304590173997,None,722.3040992809983,728.6800096500083,722.3040992809983,728.6800096500083,728.6800096500083,None,728.6800096500083,None,space,0.31141577899688855,728.6800096500083,None,6.3725,729.1276075360074,None,,,,,,,010,001,2022_Jul_06_1713,2-25_cond_decay_EYE-try,2021.2.3,163.60758921084565,
right,1.0,0.75,0,0,0,0,0,2,0,2,0,0,7,7,9,,,,,,,,,,,,,,,10s,730.1832636489999,731.1839464969962,731.177721015003,None,732.1772751590033,736.1396197450085,732.1772751590033,736.1396197450085,736.1328728740045,None,736.1328728740045,None,space,0.4666377130051842,736.1328728740045,None,3.9537,736.7331504530011,None,,,,,,,010,001,2022_Jul_06_1713,2-25_cond_decay_EYE-try,2021.2.3,163.60758921084565,
left,0.75,1.0,0,0,0,0,0,2,0,2,0,0,8,8,2,,,,,,,,,,,,,,,10s,737.7820375180017,738.7828138350014,738.7709637350054,None,739.7709316330001,743.28616263601,739.7709316330001,743.28616263601,743.28616263601,None,743.28616263601,None,space,0.4012872070015874,743.28616263601,None,3.5142,743.8247336040076,None,,,,,,,010,001,2022_Jul_06_1713,2-25_cond_decay_EYE-try,2021.2.3,163.60758921084565,
left,0.75,1.0,0,0,0,0,0,2,0,2,0,0,9,9,0,,,,,,,,,,,,,,,10s,744.8792739710043,745.8804967140022,745.8680600600055,None,746.8679918190028,755.9525912859972,746.8679918190028,755.9525912859972,755.9525912859972,None,755.9525912859972,None,space,0.4228383719892008,755.9525912859972,None,9.0805,756.5084413060104,None,,,,,,,010,001,2022_Jul_06_1713,2-25_cond_decay_EYE-try,2021.2.3,163.60758921084565,
left,0.75,1.0,0,0,0,0,0,2,0,2,0,1,0,10,0,,,,,,,,,,,,,,,10s,757.5580006189994,758.5581591630034,758.5521146390092,None,759.5525209100015,769.0789411389997,759.5525209100015,769.0789411389997,769.0721326409985,None,769.0721326409985,None,space,0.47130698899854906,769.0721326409985,None,9.5167,769.6779678980092,None,,,,,,,010,001,2022_Jul_06_1713,2-25_cond_decay_EYE-try,2021.2.3,163.60758921084565,
left,0.75,1.0,0,0,0,0,0,2,0,2,0,1,1,11,3,,,,,,,,,,,,,,,10s,770.7266236090072,771.7285672709986,771.7219525210094,None,772.7223112180072,775.795044257,772.7223112180072,775.795044257,775.795044257,None,775.795044257,None,space,0.4043892420013435,775.795044257,None,3.072,776.3279046649986,None,,,,,,,010,001,2022_Jul_06_1713,2-25_cond_decay_EYE-try,2021.2.3,163.60758921084565,
left,0.75,1.0,0,0,0,0,0,2,0,2,0,1,2,12,8,,,,,,,,,,,,,,,10s,777.3818472980056,778.3831809520052,778.3710426000034,None,779.3703053619975,785.6129239930015,779.3703053619975,785.6129239930015,785.6129239930015,None,785.6129239930015,None,space,0.4105768169974908,785.6129239930015,None,6.2395,786.1523764800077,None,,,,,,,010,001,2022_Jul_06_1713,2-25_cond_decay_EYE-try,2021.2.3,163.60758921084565,
right,1.0,0.75,0,0,0,0,0,2,0,2,0,1,3,13,9,,,,,,,,,,,,,,,10s,787.206961984004,788.2071737189981,788.2011880000064,None,789.201152477006,793.8235613919969,789.201152477006,793.8235613919969,793.8171741410042,None,793.8171741410042,None,space,0.5342506330052856,793.8171741410042,None,4.615,794.4801017740101,None,,,,,,,010,001,2022_Jul_06_1713,2-25_cond_decay_EYE-try,2021.2.3,163.60758921084565,
left,1.0,0.75,1,0,0,0,0,2,0,2,0,1,4,14,5,,,,,,,,,,,,,,,10s,795.5345469029999,796.5340995450097,796.5282835000107,None,797.5282816899999,800.2058497969992,797.5282816899999,800.2058497969992,800.1992118869966,None,800.1992118869966,None,space,0.6002229919977253,800.1992118869966,None,2.6677,800.9278284940083,None,,,,,,,010,001,2022_Jul_06_1713,2-25_cond_decay_EYE-try,2021.2.3,163.60758921084565,
right,1.0,0.75,0,0,0,0,0,2,0,2,0,1,5,15,4,,,,,,,,,,,,,,,10s,801.9869100689975,802.9881629570009,802.9760044730065,None,803.9759518350038,804.2554217160068,803.9759518350038,804.2554217160068,804.2554217160068,None,804.2554217160068,None,None,,804.2554217160068,None,0.2746,805.3806356900022,None,,,,,,,010,001,2022_Jul_06_1713,2-25_cond_decay_EYE-try,2021.2.3,163.60758921084565,
right,1.0,0.75,0,0,0,0,0,2,0,2,0,1,6,16,1,,,,,,,,,,,,,,,10s,806.4293553000025,807.4309792990098,807.425033669002,None,808.4252149520034,811.7995328960096,808.4252149520034,811.7995328960096,811.7926028640068,None,811.7926028640068,None,space,0.3668385069904616,811.7926028640068,None,3.3682,812.2977158959984,None,,,,,,,010,001,2022_Jul_06_1713,2-25_cond_decay_EYE-try,2021.2.3,163.60758921084565,
right,1.0,0.75,0,0,0,0,0,2,0,2,0,1,7,17,7,,,,,,,,,,,,,,,10s,813.350595780008,814.3515114010079,814.3393814279989,None,815.3393016050104,815.5151676710084,815.3393016050104,815.5151676710084,815.5151676710084,None,815.5151676710084,None,space,0.3962685680016875,815.5151676710084,None,0.1713,816.0475399160059,None,,,,,,,010,001,2022_Jul_06_1713,2-25_cond_decay_EYE-try,2021.2.3,163.60758921084565,
right,0.75,1.0,1,0,0,0,0,2,0,2,0,1,8,18,6,,,,,,,,,,,,,,,10s,817.1024776600098,818.1033536820032,818.0975463680079,None,819.0974862779985,824.424610136004,819.0974862779985,824.424610136004,824.424610136004,None,824.424610136004,None,space,0.5028297670069151,824.424610136004,None,5.3274,825.0659711290064,None,,,,,,,010,001,2022_Jul_06_1713,2-25_cond_decay_EYE-try,2021.2.3,163.60758921084565,
left,0.75,1.0,0,0,0,0,0,2,0,2,0,1,9,19,2,,,,,,,,,,,,,,,10s,826.1202257179975,827.1218833180028,827.1149889439985,None,828.1152092900011,832.7151521250053,828.1152092900011,832.7151521250053,832.7151521250053,None,832.7151521250053,None,space,0.3162852449895581,832.7151521250053,None,4.6001,833.1683192519995,None,,,,,,,010,001,2022_Jul_06_1713,2-25_cond_decay_EYE-try,2021.2.3,163.60758921084565,
,,,,0,0,0,0,2,0,2,0,,,,,,,,,,,,,,,,,,,,,,,,,,,,,,,,,,,,,,,,,,,,,010,001,2022_Jul_06_1713,2-25_cond_decay_EYE-try,2021.2.3,163.60758921084565,
left,0.75,1.0,0,0,0,0,0,3,0,3,0,0,0,0,0,,,,,,,,,834.0650803120079,None,834.0650803120079,None,834.0650803120079,None,1s,873.8288161219971,874.8301302890031,874.8177196089964,None,875.8174770210026,876.4056842440041,875.8174770210026,876.4056842440041,876.4056842440041,None,876.4056842440041,None,space,0.45775478400173597,876.4056842440041,None,0.5837,876.9981817969965,None,,,,,,,010,001,2022_Jul_06_1713,2-25_cond_decay_EYE-try,2021.2.3,163.60758921084565,
left,0.75,1.0,0,0,0,0,0,3,0,3,0,0,1,1,3,,,,,,,,,,,,,,,1s,878.046998374004,879.0480086720054,879.0359335009998,None,880.0360236200067,880.6476801859972,880.0360236200067,880.6476801859972,880.6476801859972,None,880.6476801859972,None,space,0.35174750100122765,880.6476801859972,None,0.6103,881.1265364450082,None,,,,,,,010,001,2022_Jul_06_1713,2-25_cond_decay_EYE-try,2021.2.3,163.60758921084565,
right,1.0,0.75,0,0,0,0,0,3,0,3,0,0,2,2,7,,,,,,,,,,,,,,,1s,882.1866425970074,883.1871849820018,883.1749078060093,None,884.1750379730074,884.9627779910079,884.1750379730074,884.9627779910079,884.9627779910079,None,884.9627779910079,None,space,0.4126687660027528,884.9627779910079,None,0.7862,885.51506216501,None,,,,,,,010,001,2022_Jul_06_1713,2-25_cond_decay_EYE-try,2021.2.3,163.60758921084565,
right,1.0,0.75,0,0,0,0,0,3,0,3,0,0,3,3,8,,,,,,,,,,,,,,,1s,886.5684903090005,887.5688351470017,887.5567337469984,None,888.5569400439999,888.908932877006,888.5569400439999,888.908932877006,888.908932877006,None,888.908932877006,None,space,0.4345096010074485,888.908932877006,None,0.3481,889.4727042669983,None,,,,,,,010,001,2022_Jul_06_1713,2-25_cond_decay_EYE-try,2021.2.3,163.60758921084565,
left,0.75,1.0,0,0,0,0,0,3,0,3,0,0,4,4,4,,,,,,,,,,,,,,,1s,890.5261247309973,891.5269722710073,891.5146887770097,None,892.514636234002,892.7086062690069,892.514636234002,892.7086062690069,892.7086062690069,None,892.7086062690069,None,space,0.46684774399909656,892.7086062690069,None,0.1949,893.3131368410104,None,,,,,,,010,001,2022_Jul_06_1713,2-25_cond_decay_EYE-try,2021.2.3,163.60758921084565,
left,1.0,0.75,1,0,0,0,0,3,0,3,0,0,5,5,2,,,,,,,,,,,,,,,1s,894.3682143909973,895.3688541050069,895.3630578330049,None,896.3628434020065,897.1082857950096,896.3628434020065,897.1082857950096,897.1082857950096,None,897.1082857950096,None,space,0.39516338500834536,897.1082857950096,None,0.7465,897.6408450699964,None,,,,,,,010,001,2022_Jul_06_1713,2-25_cond_decay_EYE-try,2021.2.3,163.60758921084565,
left,0.75,1.0,0,0,0,0,0,3,0,3,0,0,6,6,6,,,,,,,,,,,,,,,1s,898.6961571900029,899.6958579519996,899.6898821650102,None,900.6902911890065,901.1133591600083,900.6902911890065,901.1133591600083,901.1067480570055,None,901.1067480570055,None,space,0.3407077030133223,901.1067480570055,None,0.4132,901.5754432520043,None,,,,,,,010,001,2022_Jul_06_1713,2-25_cond_decay_EYE-try,2021.2.3,163.60758921084565,
right,1.0,0.75,0,0,0,0,0,3,0,3,0,0,7,7,9,,,,,,,,,,,,,,,1s,902.6343595070066,903.6355407980009,903.6296932950063,None,904.6241117680038,905.198776877005,904.6241117680038,905.198776877005,905.198776877005,None,905.198776877005,None,space,0.30468020899570547,905.198776877005,None,0.5699,905.6407733910019,None,,,,,,,010,001,2022_Jul_06_1713,2-25_cond_decay_EYE-try,2021.2.3,163.60758921084565,
right,1.0,0.75,0,0,0,0,0,3,0,3,0,0,8,8,5,,,,,,,,,,,,,,,1s,906.6895874460024,907.6902452220093,907.6843625790061,None,908.683692806997,909.5694477060024,908.683692806997,909.5694477060024,909.5694477060024,None,909.5694477060024,None,space,0.3340648129960755,909.5694477060024,None,0.883,910.0402139409998,None,,,,,,,010,001,2022_Jul_06_1713,2-25_cond_decay_EYE-try,2021.2.3,163.60758921084565,
right,0.75,1.0,1,0,0,0,0,3,0,3,0,0,9,9,1,,,,,,,,,,,,,,,1s,911.0948523090046,912.0962537570013,912.0836863250006,None,913.0841711289977,913.4161333579978,913.0841711289977,913.4161333579978,913.4101992450014,None,913.4101992450014,None,space,0.4292370189941721,913.4101992450014,None,0.3225,913.9679848070082,None,,,,,,,010,001,2022_Jul_06_1713,2-25_cond_decay_EYE-try,2021.2.3,163.60758921084565,
left,0.75,1.0,0,0,0,0,0,3,0,3,0,1,0,10,3,,,,,,,,,,,,,,,1s,915.0227454679989,916.02385176401,916.0171745889966,None,917.0169427710061,917.8235493920074,917.0169427710061,917.8235493920074,917.8235493920074,None,917.8235493920074,None,space,0.4239754459995311,917.8235493920074,None,0.8057,918.3747366629977,None,,,,,,,010,001,2022_Jul_06_1713,2-25_cond_decay_EYE-try,2021.2.3,163.60758921084565,
right,1.0,0.75,0,0,0,0,0,3,0,3,0,1,1,11,9,,,,,,,,,,,,,,,1s,919.4346541170089,920.4350573889969,920.4236623909965,None,921.4229531629971,922.2782731560001,921.4229531629971,922.2782731560001,922.2782731560001,None,922.2782731560001,None,space,0.40918413299368694,922.2782731560001,None,0.8519,922.8163565680006,None,,,,,,,010,001,2022_Jul_06_1713,2-25_cond_decay_EYE-try,2021.2.3,163.60758921084565,
right,1.0,0.75,0,0,0,0,0,3,0,3,0,1,2,12,5,,,,,,,,,,,,,,,1s,923.8702024630038,924.8722114789998,924.8651684130018,None,925.8656069170102,926.6346680720017,925.8656069170102,926.6346680720017,926.6278805230104,None,926.6278805230104,None,space,0.29957767500309274,926.6278805230104,None,0.7598,927.0640135480062,None,,,,,,,010,001,2022_Jul_06_1713,2-25_cond_decay_EYE-try,2021.2.3,163.60758921084565,
left,0.75,1.0,0,0,0,0,0,3,0,3,0,1,3,13,4,,,,,,,,,,,,,,,1s,928.1251096600026,929.1264497000084,929.1197428720043,None,930.1198104049981,931.0942626250035,930.1198104049981,931.0942626250035,931.0888132020045,None,931.0888132020045,None,space,0.4706393889937317,931.0888132020045,None,0.9677,931.6965696499974,None,,,,,,,010,001,2022_Jul_06_1713,2-25_cond_decay_EYE-try,2021.2.3,163.60758921084565,
right,0.75,1.0,1,0,0,0,0,3,0,3,0,1,4,14,1,,,,,,,,,,,,,,,1s,932.7556020360062,933.7561323410046,933.7445897940052,None,934.7445180380018,935.6529043519986,934.7445180380018,935.6529043519986,935.6529043519986,None,935.6529043519986,None,space,0.38656536099733785,935.6529043519986,None,0.9092,936.1681817070057,None,,,,,,,010,001,2022_Jul_06_1713,2-25_cond_decay_EYE-try,2021.2.3,163.60758921084565,
left,0.75,1.0,0,0,0,0,0,3,0,3,0,1,5,15,6,,,,,,,,,,,,,,,1s,937.2285240900092,938.2291395560023,938.2232639419963,None,939.2232937360095,939.8534796640015,939.2232937360095,939.8534796640015,939.8465346870071,None,939.8465346870071,None,space,0.36099503000150435,939.8465346870071,None,0.6198,940.3386589160073,None,,,,,,,010,001,2022_Jul_06_1713,2-25_cond_decay_EYE-try,2021.2.3,163.60758921084565,
left,0.75,1.0,0,0,0,0,0,3,0,3,0,1,6,16,0,,,,,,,,,,,,,,,1s,941.3916765120084,942.3929421930079,942.3871684600017,None,943.3863042960002,944.1562062770099,943.3863042960002,944.1562062770099,944.1562062770099,None,944.1562062770099,None,space,0.3232331720064394,944.1562062770099,None,0.7691,944.6163197900023,None,,,,,,,010,001,2022_Jul_06_1713,2-25_cond_decay_EYE-try,2021.2.3,163.60758921084565,
right,1.0,0.75,0,0,0,0,0,3,0,3,0,1,7,17,7,,,,,,,,,,,,,,,1s,945.6771153380105,946.6776019829995,946.6717461100052,None,947.671517884999,947.8636288090056,947.671517884999,947.8636288090056,947.8579329380009,None,947.8579329380009,None,space,0.6615485990041634,947.8579329380009,None,0.1827,948.6523005269992,None,,,,,,,010,001,2022_Jul_06_1713,2-25_cond_decay_EYE-try,2021.2.3,163.60758921084565,
left,1.0,0.75,1,0,0,0,0,3,0,3,0,1,8,18,2,,,,,,,,,,,,,,,1s,949.7064477500098,950.7079065620055,950.6953187540057,None,951.695409648004,952.1742972100037,951.695409648004,952.1742972100037,952.1742972100037,None,952.1742972100037,None,space,0.3611436610081,952.1742972100037,None,0.4796,952.6637840710027,None,,,,,,,010,001,2022_Jul_06_1713,2-25_cond_decay_EYE-try,2021.2.3,163.60758921084565,
right,1.0,0.75,0,0,0,0,0,3,0,3,0,1,9,19,8,,,,,,,,,,,,,,,1s,953.7244562780106,954.7262200630066,954.7137151080096,None,955.7139889530081,956.1742169790086,955.7139889530081,956.1742169790086,956.1742169790086,None,956.1742169790086,None,space,0.35330104299646337,956.1742169790086,None,0.4556,956.6638168659993,None,,,,,,,010,001,2022_Jul_06_1713,2-25_cond_decay_EYE-try,2021.2.3,163.60758921084565,
,,,,0,0,0,0,3,0,3,0,,,,,,,,,,,,,,,,,,,,,,,,,,,,,,,,,,,,,,,,,,,,,010,001,2022_Jul_06_1713,2-25_cond_decay_EYE-try,2021.2.3,163.60758921084565,
,,,,0,0,0,0,,,,,,,,,,,,,,,,,,,,,,,,,,,,,,,,,,,,,,,,,,,957.5609977790009,None,957.5609977790009,None,957.5609977790009,None,010,001,2022_Jul_06_1713,2-25_cond_decay_EYE-try,2021.2.3,163.60758921084565,
right,1.0,0.75,0,1,0,1,0,0,0,0,0,0,0,0,6,,,,,,,,,962.5605013720051,None,962.5605013720051,None,962.5605013720051,None,3s,1011.2696764060092,1012.2703131660091,1012.2645095080079,None,1013.264526908999,1015.5371446659992,1013.264526908999,1015.5371446659992,1015.5317597600078,None,1015.5317597600078,None,space,0.33177296399662737,1015.5317597600078,None,2.271,1015.9969108960067,None,,,,,,,010,001,2022_Jul_06_1713,2-25_cond_decay_EYE-try,2021.2.3,163.60758921084565,
right,0.75,1.0,1,1,0,1,0,0,0,0,0,0,1,1,0,,,,,,,,,,,,,,,3s,1017.0408871320105,1018.0403684670018,1018.0343923760083,None,1019.033823603997,1021.7308927370032,1019.033823603997,1021.7308927370032,1021.7308927370032,None,1021.7308927370032,None,space,0.3885728309978731,1021.7308927370032,None,2.6951,1022.2571701580018,None,,,,,,,010,001,2022_Jul_06_1713,2-25_cond_decay_EYE-try,2021.2.3,163.60758921084565,
left,0.75,1.0,0,1,0,1,0,0,0,0,0,0,2,2,7,,,,,,,,,,,,,,,3s,1023.3176597440033,1024.3187513470039,1024.3127058859973,None,1025.3134417690017,1026.4340195370023,1025.3134417690017,1026.4340195370023,1026.4340195370023,None,1026.4340195370023,None,space,0.39743786200415343,1026.4340195370023,None,1.1204,1026.9611357740068,None,,,,,,,010,001,2022_Jul_06_1713,2-25_cond_decay_EYE-try,2021.2.3,163.60758921084565,
right,1.0,0.75,0,1,0,1,0,0,0,0,0,0,3,3,3,,,,,,,,,,,,,,,3s,1028.0152446690045,1029.015747835001,1029.009962490003,None,1030.0105273299996,1030.476980530002,1030.0105273299996,1030.476980530002,1030.476980530002,None,1030.476980530002,None,space,0.41847674299788196,1030.476980530002,None,0.4661,1031.032645918007,None,,,,,,,010,001,2022_Jul_06_1713,2-25_cond_decay_EYE-try,2021.2.3,163.60758921084565,
left,0.75,1.0,0,1,0,1,0,0,0,0,0,0,4,4,5,,,,,,,,,,,,,,,3s,1032.0934195580048,1033.0945087980072,1033.0821546470106,None,1034.0830048970092,1035.0460876870056,1034.0830048970092,1035.0460876870056,1035.0460876870056,None,1035.0460876870056,None,space,0.3613744939939352,1035.0460876870056,None,0.9615,1035.5419035810046,None,,,,,,,010,001,2022_Jul_06_1713,2-25_cond_decay_EYE-try,2021.2.3,163.60758921084565,
right,1.0,0.75,0,1,0,1,0,0,0,0,0,0,5,5,8,,,,,,,,,,,,,,,3s,1036.589974654009,1037.591809259,1037.5858756460075,None,1038.585253903002,1040.2882421210088,1038.585253903002,1040.2882421210088,1040.2815573800035,None,1040.2815573800035,None,space,0.33392123799421825,1040.2815573800035,None,1.6932,1040.7480567540042,None,,,,,,,010,001,2022_Jul_06_1713,2-25_cond_decay_EYE-try,2021.2.3,163.60758921084565,
left,1.0,0.75,1,1,0,1,0,0,0,0,0,0,6,6,4,,,,,,,,,,,,,,,3s,1041.8029480719997,1042.8040555210027,1042.7918833150034,None,1043.791534012009,1045.2577313030051,1043.791534012009,1045.2577313030051,1045.2577313030051,None,1045.2577313030051,None,space,0.39773063200118486,1045.2577313030051,None,1.4633,1045.7901321149984,None,,,,,,,010,001,2022_Jul_06_1713,2-25_cond_decay_EYE-try,2021.2.3,163.60758921084565,
left,0.75,1.0,0,1,0,1,0,0,0,0,0,0,7,7,2,,,,,,,,,,,,,,,3s,1046.846624074009,1047.8465355119988,1047.8396472840104,None,1048.8397042630095,1049.5978436840087,1048.8397042630095,1049.5978436840087,1049.5978436840087,None,1049.5978436840087,None,space,0.4176254939957289,1049.5978436840087,None,0.757,1050.1426702720055,None,,,,,,,010,001,2022_Jul_06_1713,2-25_cond_decay_EYE-try,2021.2.3,163.60758921084565,
right,1.0,0.75,0,1,0,1,0,0,0,0,0,0,8,8,9,,,,,,,,,,,,,,,3s,1051.20236256301,1052.2034378149983,1052.191014558004,None,1053.1915638380015,1053.4623856580001,1053.1915638380015,1053.4623856580001,1053.4566422339994,None,1053.4566422339994,None,space,0.5748794399987673,1053.4566422339994,None,0.2619,1054.1613965830038,None,,,,,,,010,001,2022_Jul_06_1713,2-25_cond_decay_EYE-try,2021.2.3,163.60758921084565,
left,0.75,1.0,0,1,0,1,0,0,0,0,0,0,9,9,1,,,,,,,,,,,,,,,3s,1055.2158162580017,1056.2154441550083,1056.2097102090047,None,1057.2097613549995,1058.7916444380098,1057.2097613549995,1058.7916444380098,1058.7916444380098,None,1058.7916444380098,None,space,0.3278166060044896,1058.7916444380098,None,1.581,1059.2569657870044,None,,,,,,,010,001,2022_Jul_06_1713,2-25_cond_decay_EYE-try,2021.2.3,163.60758921084565,
left,0.75,1.0,0,1,0,1,0,0,0,0,0,1,0,10,1,,,,,,,,,,,,,,,3s,1060.3112528269994,1061.3123149940075,1061.3066706730024,None,1062.3066021609993,1062.9244629830064,1062.3066021609993,1062.9244629830064,1062.9177638990077,None,1062.9177638990077,None,space,0.38577281800098717,1062.9177638990077,None,0.6089,1063.438576697008,None,,,,,,,010,001,2022_Jul_06_1713,2-25_cond_decay_EYE-try,2021.2.3,163.60758921084565,
right,1.0,0.75,0,1,0,1,0,0,0,0,0,1,1,11,8,,,,,,,,,,,,,,,3s,1064.492653911002,1065.4947737040056,1065.4825171499979,None,1066.4817454010044,1068.342880080003,1066.4817454010044,1068.342880080003,1068.342880080003,None,1068.342880080003,None,space,0.33658971000113524,1068.342880080003,None,1.8588,1068.8089203779964,None,,,,,,,010,001,2022_Jul_06_1713,2-25_cond_decay_EYE-try,2021.2.3,163.60758921084565,
right,1.0,0.75,0,1,0,1,0,0,0,0,0,1,2,12,6,,,,,,,,,,,,,,,3s,1069.864152013004,1070.864527540005,1070.8575418510009,None,1071.8579798290011,1073.9059750020097,1071.8579798290011,1073.9059750020097,1073.9059750020097,None,1073.9059750020097,None,space,0.37356439599534497,1073.9059750020097,None,2.0466,1074.409857784005,None,,,,,,,010,001,2022_Jul_06_1713,2-25_cond_decay_EYE-try,2021.2.3,163.60758921084565,
left,0.75,1.0,0,1,0,1,0,0,0,0,0,1,3,13,7,,,,,,,,,,,,,,,3s,1075.468313202,1076.470326670009,1076.4583006110042,None,1077.4575553660106,1080.3052202609979,1077.4575553660106,1080.3052202609979,1080.2985015500017,None,1080.2985015500017,None,space,0.3890434709901456,1080.2985015500017,None,2.8379,1080.8158665950032,None,,,,,,,010,001,2022_Jul_06_1713,2-25_cond_decay_EYE-try,2021.2.3,163.60758921084565,
left,1.0,0.75,1,1,0,1,0,0,0,0,0,1,4,14,4,,,,,,,,,,,,,,,3s,1081.8690359949978,1082.8699816660082,1082.858192796004,None,1083.8638837760082,1084.5171064120077,1083.8638837760082,1084.5171064120077,1084.5105119640066,None,1084.5105119640066,None,space,0.8329649759980384,1084.5105119640066,None,0.6451,1085.4810206100083,None,,,,,,,010,001,2022_Jul_06_1713,2-25_cond_decay_EYE-try,2021.2.3,163.60758921084565,
left,0.75,1.0,0,1,0,1,0,0,0,0,0,1,5,15,5,,,,,,,,,,,,,,,3s,1086.5347580990056,1087.5362660490064,1087.5245006010082,None,1088.524490115,1090.1911321310035,1088.524490115,1090.1911321310035,1090.1911321310035,None,1090.1911321310035,None,space,0.3524019789911108,1090.1911321310035,None,1.6617,1090.6806772109994,None,,,,,,,010,001,2022_Jul_06_1713,2-25_cond_decay_EYE-try,2021.2.3,163.60758921084565,
left,0.75,1.0,0,1,0,1,0,0,0,0,0,1,6,16,2,,,,,,,,,,,,,,,3s,1091.7288391330076,1092.7303132310044,1092.7245804370032,None,1093.7238602450088,1094.874486628003,1093.7238602450088,1094.874486628003,1094.8687828010006,None,1094.8687828010006,None,space,0.33081368599960115,1094.8687828010006,None,1.1416,1095.330430299,None,,,,,,,010,001,2022_Jul_06_1713,2-25_cond_decay_EYE-try,2021.2.3,163.60758921084565,
right,0.75,1.0,1,1,0,1,0,0,0,0,0,1,7,17,0,,,,,,,,,,,,,,,3s,1096.3837144270074,1097.3843683940067,1097.378531252005,None,1098.3783017980022,1098.9178954070085,1098.3783017980022,1098.9178954070085,1098.9178954070085,None,1098.9178954070085,None,space,0.4095768590050284,1098.9178954070085,None,0.5404,1099.4574745010032,None,,,,,,,010,001,2022_Jul_06_1713,2-25_cond_decay_EYE-try,2021.2.3,163.60758921084565,
right,1.0,0.75,0,1,0,1,0,0,0,0,0,1,8,18,3,,,,,,,,,,,,,,,3s,1100.5056210720068,1101.506329294003,1101.4994632550079,None,1102.500201900999,1105.481325998,1102.500201900999,1105.481325998,1105.481325998,None,1105.481325998,None,space,0.3261523740075063,1105.481325998,None,2.9799,1105.941476840002,None,,,,,,,010,001,2022_Jul_06_1713,2-25_cond_decay_EYE-try,2021.2.3,163.60758921084565,
right,1.0,0.75,0,1,0,1,0,0,0,0,0,1,9,19,9,,,,,,,,,,,,,,,3s,1106.9899023680046,1107.9903036100004,1107.9845193000074,None,1108.9847406550107,1110.3828228589991,1108.9847406550107,1110.3828228589991,1110.3773070040043,None,1110.3773070040043,None,space,0.47015062399441376,1110.3773070040043,None,1.3925,1110.9835822220048,None,,,,,,,010,001,2022_Jul_06_1713,2-25_cond_decay_EYE-try,2021.2.3,163.60758921084565,
,,,,1,0,1,0,0,0,0,0,,,,,,,,,,,,,,,,,,,,,,,,,,,,,,,,,,,,,,,,,,,,,010,001,2022_Jul_06_1713,2-25_cond_decay_EYE-try,2021.2.3,163.60758921084565,
left,1.0,0.75,1,1,0,1,0,1,0,1,0,0,0,0,8,,,,,,,,,1111.8756427100016,None,1111.8756427100016,None,1111.8756427100016,None,10s,1114.777902515998,1115.7785982839996,1115.7663019860047,None,1116.7663470609987,1122.463309372004,1116.7663470609987,1122.463309372004,1122.4689804160007,None,1122.4689804160007,None,space,0.4185941140021896,1122.4689804160007,None,5.6978,1123.0196617170004,None,,,,,,,010,001,2022_Jul_06_1713,2-25_cond_decay_EYE-try,2021.2.3,163.60758921084565,
right,1.0,0.75,0,1,0,1,0,1,0,1,0,0,1,1,4,,,,,,,,,,,,,,,10s,1124.074194618006,1125.0753860580007,1125.0695344970009,None,1126.0691420939984,1131.0267793420062,1126.0691420939984,1131.0267793420062,1131.0213309609971,None,1131.0213309609971,None,space,0.3781570570135955,1131.0213309609971,None,4.9524,1131.5299283180066,None,,,,,,,010,001,2022_Jul_06_1713,2-25_cond_decay_EYE-try,2021.2.3,163.60758921084565,
left,0.75,1.0,0,1,0,1,0,1,0,1,0,0,2,2,2,,,,,,,,,,,,,,,10s,1132.5896960300015,1133.5908044980024,1133.5785212690098,None,1134.5779962040106,1137.535569507003,1134.5779962040106,1137.535569507003,1137.535569507003,None,1137.535569507003,None,space,0.4239338309998857,1137.535569507003,None,2.9559,1138.0873606980022,None,,,,,,,010,001,2022_Jul_06_1713,2-25_cond_decay_EYE-try,2021.2.3,163.60758921084565,
left,0.75,1.0,0,1,0,1,0,1,0,1,0,0,3,3,5,,,,,,,,,,,,,,,10s,1139.1347750290006,1140.1360824930016,1140.1300727790076,None,1141.1297157360095,1150.8688377530052,1141.1297157360095,1150.8688377530052,1150.8688377530052,None,1150.8688377530052,None,space,0.4826386829954572,1150.8688377530052,None,9.7389,1151.4809019329987,None,,,,,,,010,001,2022_Jul_06_1713,2-25_cond_decay_EYE-try,2021.2.3,163.60758921084565,
left,1.0,0.75,1,1,0,1,0,1,0,1,0,0,4,4,7,,,,,,,,,,,,,,,10s,1152.5348693859996,1153.5354664510087,1153.5233656490018,None,1154.523510865998,1160.747984394009,1154.523510865998,1160.747984394009,1160.747984394009,None,1160.747984394009,None,space,0.4274902859906433,1160.747984394009,None,6.2216,1161.309745963008,None,,,,,,,010,001,2022_Jul_06_1713,2-25_cond_decay_EYE-try,2021.2.3,163.60758921084565,
right,0.75,1.0,1,1,0,1,0,1,0,1,0,0,5,5,6,,,,,,,,,,,,,,,10s,1162.3654976450052,1163.365817968006,1163.3533638390072,None,1164.35354507601,1171.1107004560035,1164.35354507601,1171.1107004560035,1171.1107004560035,None,1171.1107004560035,None,space,0.40078380100021604,1171.1107004560035,None,6.7533,1171.6495367290045,None,,,,,,,010,001,2022_Jul_06_1713,2-25_cond_decay_EYE-try,2021.2.3,163.60758921084565,
left,0.75,1.0,0,1,0,1,0,1,0,1,0,0,6,6,3,,,,,,,,,,,,,,,10s,1172.7056716640072,1173.7108023080073,1173.6986655509972,None,1174.6987702769984,1180.202335383001,1174.6987702769984,1180.202335383001,1180.202335383001,None,1180.202335383001,None,space,0.37317004200303927,1180.202335383001,None,5.4987,1180.7103586820012,None,,,,,,,010,001,2022_Jul_06_1713,2-25_cond_decay_EYE-try,2021.2.3,163.60758921084565,
left,0.75,1.0,0,1,0,1,0,1,0,1,0,0,7,7,0,,,,,,,,,,,,,,,10s,1181.7645309150103,1182.7650471610104,1182.752944124004,None,1183.753577112002,1188.6984278610034,1183.753577112002,1188.6984278610034,1188.6984278610034,None,1188.6984278610034,None,space,0.3410625559918117,1188.6984278610034,None,4.943,1189.1767165950005,None,,,,,,,010,001,2022_Jul_06_1713,2-25_cond_decay_EYE-try,2021.2.3,163.60758921084565,
right,1.0,0.75,0,1,0,1,0,1,0,1,0,0,8,8,1,,,,,,,,,,,,,,,10s,1190.2320614869968,1191.231799768997,1191.2267136860028,None,1192.226390101001,1193.341496369001,1192.226390101001,1193.341496369001,1193.341496369001,None,1193.341496369001,None,space,0.46598498299135827,1193.341496369001,None,1.1153,1193.934823062009,None,,,,,,,010,001,2022_Jul_06_1713,2-25_cond_decay_EYE-try,2021.2.3,163.60758921084565,
right,1.0,0.75,0,1,0,1,0,1,0,1,0,0,9,9,9,,,,,,,,,,,,,,,10s,1194.98242914601,1195.9832669169991,1195.9776306709973,None,1196.9777016279986,1198.2686683810025,1196.9777016279986,1198.2686683810025,1198.2686683810025,None,1198.2686683810025,None,space,0.5068186550051905,1198.2686683810025,None,1.2905,1198.903484680006,None,,,,,,,010,001,2022_Jul_06_1713,2-25_cond_decay_EYE-try,2021.2.3,163.60758921084565,
left,1.0,0.75,1,1,0,1,0,1,0,1,0,1,0,10,7,,,,,,,,,,,,,,,10s,1199.9641792800103,1200.9649769219977,1200.9529853100103,None,1201.9530776169995,1210.879916033009,1201.9530776169995,1210.879916033009,1210.879916033009,None,1210.879916033009,None,space,0.40757936899899505,1210.879916033009,None,8.9279,1211.4241415669967,None,,,,,,,010,001,2022_Jul_06_1713,2-25_cond_decay_EYE-try,2021.2.3,163.60758921084565,
right,1.0,0.75,0,1,0,1,0,1,0,1,0,1,1,11,4,,,,,,,,,,,,,,,10s,1212.4852040240075,1213.485911773998,1213.480111826997,None,1214.479974425005,1221.2794032969978,1214.479974425005,1221.2794032969978,1221.27250498801,None,1221.27250498801,None,space,0.3829922919976525,1221.27250498801,None,6.7921,1221.7830713690055,None,,,,,,,010,001,2022_Jul_06_1713,2-25_cond_decay_EYE-try,2021.2.3,163.60758921084565,
left,0.75,1.0,0,1,0,1,0,1,0,1,0,1,2,12,0,,,,,,,,,,,,,,,10s,1222.8364889180084,1223.8376725459966,1223.8254694610077,None,1224.826145116007,1227.3350215420069,1224.826145116007,1227.3350215420069,1227.3350215420069,None,1227.3350215420069,None,space,0.4164754420053214,1227.3350215420069,None,2.5075,1227.8798386609997,None,,,,,,,010,001,2022_Jul_06_1713,2-25_cond_decay_EYE-try,2021.2.3,163.60758921084565,
left,0.75,1.0,0,1,0,1,0,1,0,1,0,1,3,13,2,,,,,,,,,,,,,,,10s,1228.9333978549985,1229.934559539004,1229.928629097005,None,1230.9285734730074,1239.654204519,1230.9285734730074,1239.654204519,1239.6487390700058,None,1239.6487390700058,None,space,0.3187591070018243,1239.6487390700058,None,8.7189,1240.097464699007,None,,,,,,,010,001,2022_Jul_06_1713,2-25_cond_decay_EYE-try,2021.2.3,163.60758921084565,
left,0.75,1.0,0,1,0,1,0,1,0,1,0,1,4,14,3,,,,,,,,,,,,,,,10s,1241.151661558004,1242.1528207640076,1242.1468722940044,None,1243.1470575880085,1249.206010202004,1243.1470575880085,1249.206010202004,1249.1993830510037,None,1249.1993830510037,None,space,0.32010594800522085,1249.1993830510037,None,6.0494,1249.6545081720105,None,,,,,,,010,001,2022_Jul_06_1713,2-25_cond_decay_EYE-try,2021.2.3,163.60758921084565,
right,1.0,0.75,0,1,0,1,0,1,0,1,0,1,5,15,8,,,,,,,,,,,,,,,10s,1250.7093556730106,1251.7102595909964,1251.6985884530004,None,1252.6981714139984,1259.1947629110073,1252.6981714139984,1259.1947629110073,1259.1947629110073,None,1259.1947629110073,None,space,0.3807337360049132,1259.1947629110073,None,6.4926,1259.7026857449964,None,,,,,,,010,001,2022_Jul_06_1713,2-25_cond_decay_EYE-try,2021.2.3,163.60758921084565,
left,0.75,1.0,0,1,0,1,0,1,0,1,0,1,6,16,5,,,,,,,,,,,,,,,10s,1260.7569936210057,1261.7581860619975,1261.752496112007,None,1262.752947918998,1265.3705673840013,1262.752947918998,1265.3705673840013,1265.363793099008,None,1265.363793099008,None,space,0.41970163900987245,1265.363793099008,None,2.6082,1265.921079163003,None,,,,,,,010,001,2022_Jul_06_1713,2-25_cond_decay_EYE-try,2021.2.3,163.60758921084565,
right,1.0,0.75,0,1,0,1,0,1,0,1,0,1,7,17,1,,,,,,,,,,,,,,,10s,1266.981093777009,1267.9830909250013,1267.9761442200106,None,1268.9771000860055,1271.9946700489963,1268.9771000860055,1271.9946700489963,1271.9878952319996,None,1271.9878952319996,None,space,0.44363084800716024,1271.9878952319996,None,3.0071,1272.569901707,None,,,,,,,010,001,2022_Jul_06_1713,2-25_cond_decay_EYE-try,2021.2.3,163.60758921084565,
right,1.0,0.75,0,1,0,1,0,1,0,1,0,1,8,18,9,,,,,,,,,,,,,,,10s,1273.6255355129979,1274.6256024199974,1274.6196723540052,None,1275.6192876709974,1278.1990077240043,1275.6192876709974,1278.1990077240043,1278.1930050020019,None,1278.1930050020019,None,space,0.3984990220051259,1278.1930050020019,None,2.5707,1278.7220117480028,None,,,,,,,010,001,2022_Jul_06_1713,2-25_cond_decay_EYE-try,2021.2.3,163.60758921084565,
right,0.75,1.0,1,1,0,1,0,1,0,1,0,1,9,19,6,,,,,,,,,,,,,,,10s,1279.776399661001,1280.776800653999,1280.7708268350107,None,1281.7701047559967,1286.619061698002,1281.7701047559967,1286.619061698002,1286.619061698002,None,1286.619061698002,None,space,0.35644390899688005,1286.619061698002,None,4.8478,1287.1036451810069,None,,,,,,,010,001,2022_Jul_06_1713,2-25_cond_decay_EYE-try,2021.2.3,163.60758921084565,
,,,,1,0,1,0,1,0,1,0,,,,,,,,,,,,,,,,,,,,,,,,,,,,,,,,,,,,,,,,,,,,,010,001,2022_Jul_06_1713,2-25_cond_decay_EYE-try,2021.2.3,163.60758921084565,
right,1.0,0.75,0,1,0,1,0,2,0,2,0,0,0,0,7,,,,,,,,,1287.9998123090045,None,1287.9998123090045,None,1287.9998123090045,None,1s,1295.7565226010047,1296.7577825550106,1296.7456543290027,None,1297.7462247530057,1298.0414432840043,1297.7462247530057,1298.0414432840043,1298.0359741520078,None,1298.0359741520078,None,space,0.41154217399889603,1298.0359741520078,None,0.2867,1298.5807727420033,None,,,,,,,010,001,2022_Jul_06_1713,2-25_cond_decay_EYE-try,2021.2.3,163.60758921084565,
left,0.75,1.0,0,1,0,1,0,2,0,2,0,0,1,1,1,,,,,,,,,,,,,,,1s,1299.6314930420049,1300.6363596930023,1300.6241974450095,None,1301.625184450997,1302.3520767650043,1301.625184450997,1302.3520767650043,1302.3520767650043,None,1302.3520767650043,None,space,0.4794165890052682,1302.3520767650043,None,0.7262,1302.9685851219983,None,,,,,,,010,001,2022_Jul_06_1713,2-25_cond_decay_EYE-try,2021.2.3,163.60758921084565,
right,1.0,0.75,0,1,0,1,0,2,0,2,0,0,2,2,6,,,,,,,,,,,,,,,1s,1304.0290931380005,1305.0311507680017,1305.0243960310036,None,1306.0252685949963,1306.2545785210095,1306.0252685949963,1306.2545785210095,1306.2479172599997,None,1306.2479172599997,None,space,0.36757748400850687,1306.2479172599997,None,0.2191,1306.7461973850004,None,,,,,,,010,001,2022_Jul_06_1713,2-25_cond_decay_EYE-try,2021.2.3,163.60758921084565,
right,1.0,0.75,0,1,0,1,0,2,0,2,0,0,3,3,9,,,,,,,,,,,,,,,1s,1307.8049469800026,1308.8061727410095,1308.8005129570083,None,1309.800504964005,1310.060114464999,1309.800504964005,1310.060114464999,1310.05352359901,None,1310.05352359901,None,space,0.35398445499595255,1310.05352359901,None,0.2492,1310.5448535100004,None,,,,,,,010,001,2022_Jul_06_1713,2-25_cond_decay_EYE-try,2021.2.3,163.60758921084565,
right,0.75,1.0,1,1,0,1,0,2,0,2,0,0,4,4,0,,,,,,,,,,,,,,,1s,1311.5993820660078,1312.6007823120017,1312.5938732360082,None,1313.5944480629987,1314.236469290001,1313.5944480629987,1314.236469290001,1314.236469290001,None,1314.236469290001,None,space,0.40302416900522076,1314.236469290001,None,0.6434,1314.7745840200078,None,,,,,,,010,001,2022_Jul_06_1713,2-25_cond_decay_EYE-try,2021.2.3,163.60758921084565,
left,0.75,1.0,0,1,0,1,0,2,0,2,0,0,5,5,5,,,,,,,,,,,,,,,1s,1315.8288666809967,1316.8305241060007,1316.8184014620056,None,1317.8181985870033,1318.4128185640002,1317.8181985870033,1318.4128185640002,1318.4128185640002,None,1318.4128185640002,None,space,0.3227594729978591,1318.4128185640002,None,0.5911,1318.8713742359978,None,,,,,,,010,001,2022_Jul_06_1713,2-25_cond_decay_EYE-try,2021.2.3,163.60758921084565,
left,0.75,1.0,0,1,0,1,0,2,0,2,0,0,6,6,4,,,,,,,,,,,,,,,1s,1319.9207154629985,1320.921590856,1320.9149096760084,None,1321.91492187501,1322.2906616950058,1321.91492187501,1322.2906616950058,1322.2906616950058,None,1322.2906616950058,None,space,0.3968410090019461,1322.2906616950058,None,0.3761,1322.8231098359975,None,,,,,,,010,001,2022_Jul_06_1713,2-25_cond_decay_EYE-try,2021.2.3,163.60758921084565,
left,0.75,1.0,0,1,0,1,0,2,0,2,0,0,7,7,8,,,,,,,,,,,,,,,1s,1323.8726942310022,1324.8727809420088,1324.8669543910073,None,1325.8664446659968,1326.5096472620062,1325.8664446659968,1326.5096472620062,1326.5096472620062,None,1326.5096472620062,None,space,0.32985541500966065,1326.5096472620062,None,0.6392,1326.9748105699982,None,,,,,,,010,001,2022_Jul_06_1713,2-25_cond_decay_EYE-try,2021.2.3,163.60758921084565,
right,1.0,0.75,0,1,0,1,0,2,0,2,0,0,8,8,2,,,,,,,,,,,,,,,1s,1328.0353901350027,1329.0367464309966,1329.0302188250062,None,1330.0309543610056,1330.653023922001,1330.0309543610056,1330.653023922001,1330.6473097929993,None,1330.6473097929993,None,space,0.32823011599248275,1330.6473097929993,None,0.6148,1331.1138518730004,None,,,,,,,010,001,2022_Jul_06_1713,2-25_cond_decay_EYE-try,2021.2.3,163.60758921084565,
right,1.0,0.75,0,1,0,1,0,2,0,2,0,0,9,9,3,,,,,,,,,,,,,,,1s,1332.1686884980008,1333.1695495270105,1333.163772963002,None,1334.1641602059972,1334.3875967049971,1334.1641602059972,1334.3875967049971,1334.3875967049971,None,1334.3875967049971,None,space,0.4038823019945994,1334.3875967049971,None,0.2247,1334.920353581998,None,,,,,,,010,001,2022_Jul_06_1713,2-25_cond_decay_EYE-try,2021.2.3,163.60758921084565,
right,1.0,0.75,0,1,0,1,0,2,0,2,0,1,0,10,3,,,,,,,,,,,,,,,1s,1335.9696156599966,1336.9701411910064,1336.9640802119975,None,1337.963520136007,1338.581827971997,1337.963520136007,1338.581827971997,1338.5751057000016,None,1338.5751057000016,None,space,0.42439823399763554,1338.5751057000016,None,0.6088,1339.1278296899982,None,,,,,,,010,001,2022_Jul_06_1713,2-25_cond_decay_EYE-try,2021.2.3,163.60758921084565,
right,1.0,0.75,0,1,0,1,0,2,0,2,0,1,1,11,9,,,,,,,,,,,,,,,1s,1340.1755041169963,1341.1759023190098,1341.1700196870079,None,1342.1697324530105,1342.4782985670026,1342.1697324530105,1342.4782985670026,1342.4782985670026,None,1342.4782985670026,None,space,0.3771881470020162,1342.4782985670026,None,0.3079,1342.9921864500066,None,,,,,,,010,001,2022_Jul_06_1713,2-25_cond_decay_EYE-try,2021.2.3,163.60758921084565,
right,0.75,1.0,1,1,0,1,0,2,0,2,0,1,2,12,0,,,,,,,,,,,,,,,1s,1344.0414270600013,1345.0420307449967,1345.0359948999976,None,1346.0358043020096,1347.0108813499974,1346.0358043020096,1347.0108813499974,1347.0043263080006,None,1347.0043263080006,None,space,0.3551710989995627,1347.0043263080006,None,0.9663,1347.496190521997,None,,,,,,,010,001,2022_Jul_06_1713,2-25_cond_decay_EYE-try,2021.2.3,163.60758921084565,
left,0.75,1.0,0,1,0,1,0,2,0,2,0,1,3,13,5,,,,,,,,,,,,,,,1s,1348.5563831300096,1349.5570871829987,1349.5510363799985,None,1350.5517145159974,1351.2422732900013,1350.5517145159974,1351.2422732900013,1351.2366485800012,None,1351.2366485800012,None,space,0.35485705600876827,1351.2366485800012,None,0.6866,1351.7212621100043,None,,,,,,,010,001,2022_Jul_06_1713,2-25_cond_decay_EYE-try,2021.2.3,163.60758921084565,
left,0.75,1.0,0,1,0,1,0,2,0,2,0,1,4,14,8,,,,,,,,,,,,,,,1s,1352.7743867649988,1353.7751393259969,1353.7691416190064,None,1354.7690218439966,1354.9987504750025,1354.7690218439966,1354.9987504750025,1354.9919952839991,None,1354.9919952839991,None,space,0.43951551101054065,1354.9919952839991,None,0.2208,1355.56784393001,None,,,,,,,010,001,2022_Jul_06_1713,2-25_cond_decay_EYE-try,2021.2.3,163.60758921084565,
left,0.75,1.0,0,1,0,1,0,2,0,2,0,1,5,15,4,,,,,,,,,,,,,,,1s,1356.6232882640033,1357.6239526029967,1357.611648103004,None,1358.6115268970025,1358.8602388779982,1358.6115268970025,1358.8602388779982,1358.8602388779982,None,1358.8602388779982,None,space,0.3712453010084573,1358.8602388779982,None,0.2463,1359.3684152409987,None,,,,,,,010,001,2022_Jul_06_1713,2-25_cond_decay_EYE-try,2021.2.3,163.60758921084565,
right,1.0,0.75,0,1,0,1,0,2,0,2,0,1,6,16,2,,,,,,,,,,,,,,,1s,1360.4285782750085,1361.429709832999,1361.4183675990062,None,1362.4183172030025,1362.9578103390086,1362.4183172030025,1362.9578103390086,1362.9578103390086,None,1362.9578103390086,None,space,0.36968331500247587,1362.9578103390086,None,0.5371,1363.4546122589963,None,,,,,,,010,001,2022_Jul_06_1713,2-25_cond_decay_EYE-try,2021.2.3,163.60758921084565,
left,1.0,0.75,1,1,0,1,0,2,0,2,0,1,7,17,7,,,,,,,,,,,,,,,1s,1364.5081648370106,1365.508651983997,1365.5027218750038,None,1366.5028996960027,1367.4421988609975,1366.5028996960027,1367.4421988609975,1367.4365032510104,None,1367.4365032510104,None,space,0.33100827000453137,1367.4365032510104,None,0.9364,1367.8962952220027,None,,,,,,,010,001,2022_Jul_06_1713,2-25_cond_decay_EYE-try,2021.2.3,163.60758921084565,
left,0.75,1.0,0,1,0,1,0,2,0,2,0,1,8,18,1,,,,,,,,,,,,,,,1s,1368.950940284005,1369.9511827789975,1369.9453262730094,None,1370.9450764710055,1371.5864666330017,1370.9450764710055,1371.5864666330017,1371.5798116899969,None,1371.5798116899969,None,space,0.3317016910004895,1371.5798116899969,None,0.6319,1372.046429235008,None,,,,,,,010,001,2022_Jul_06_1713,2-25_cond_decay_EYE-try,2021.2.3,163.60758921084565,
right,1.0,0.75,0,1,0,1,0,2,0,2,0,1,9,19,6,,,,,,,,,,,,,,,1s,1373.109480580999,1374.1087056109973,1374.1027192820038,None,1375.1023912960081,1375.283725923,1375.1023912960081,1375.283725923,1375.2769082720042,None,1375.2769082720042,None,space,0.5066024929983541,1375.2769082720042,None,0.1715,1375.91994527301,None,,,,,,,010,001,2022_Jul_06_1713,2-25_cond_decay_EYE-try,2021.2.3,163.60758921084565,
,,,,1,0,1,0,2,0,2,0,,,,,,,,,,,,,,,,,,,,,,,,,,,,,,,,,,,,,,,,,,,,,010,001,2022_Jul_06_1713,2-25_cond_decay_EYE-try,2021.2.3,163.60758921084565,
right,0.75,1.0,1,1,0,1,0,3,0,3,0,0,0,0,9,,,,,,,,,1376.8169117020007,None,1376.8169117020007,None,1376.8169117020007,None,5s,1381.6711759610043,1382.6716928700043,1382.6659031379968,None,1383.6666287889966,1385.4042555339984,1383.6666287889966,1385.4042555339984,1385.3976937889965,None,1385.3976937889965,None,space,0.4098006560088834,1385.3976937889965,None,1.7286,1385.944207848006,None,,,,,,,010,001,2022_Jul_06_1713,2-25_cond_decay_EYE-try,2021.2.3,163.60758921084565,
right,1.0,0.75,0,1,0,1,0,3,0,3,0,0,1,1,5,,,,,,,,,,,,,,,5s,1386.9979541110079,1387.9992986370053,1387.9872439129977,None,1388.9934546770091,1391.938984264998,1388.9934546770091,1391.938984264998,1391.9320175710018,None,1391.9320175710018,None,space,0.42747430299641564,1391.9320175710018,None,2.9393,1392.4947451799962,None,,,,,,,010,001,2022_Jul_06_1713,2-25_cond_decay_EYE-try,2021.2.3,163.60758921084565,
right,1.0,0.75,0,1,0,1,0,3,0,3,0,0,2,2,4,,,,,,,,,,,,,,,5s,1393.5512897529989,1394.5513545800059,1394.5444262060046,None,1395.5450912030065,1400.2416680580063,1395.5450912030065,1400.2416680580063,1400.2416680580063,None,1400.2416680580063,None,space,0.38184792900574394,1400.2416680580063,None,4.6945,1400.761195665007,None,,,,,,,010,001,2022_Jul_06_1713,2-25_cond_decay_EYE-try,2021.2.3,163.60758921084565,
left,0.75,1.0,0,1,0,1,0,3,0,3,0,0,3,3,8,,,,,,,,,,,,,,,5s,1401.8221255340031,1402.8239275149972,1402.811001302005,None,1403.8171269690065,1408.5674020830047,1403.8171269690065,1408.5674020830047,1408.5614628640033,None,1408.5614628640033,None,space,0.4540470060019288,1408.5614628640033,None,4.7424,1409.1491270280094,None,,,,,,,010,001,2022_Jul_06_1713,2-25_cond_decay_EYE-try,2021.2.3,163.60758921084565,
right,0.75,1.0,1,1,0,1,0,3,0,3,0,0,4,4,2,,,,,,,,,,,,,,,5s,1410.1975228369993,1411.199319403997,1411.187037627009,None,1412.1873223820003,1416.6161995290022,1412.1873223820003,1416.6161995290022,1416.609653809006,None,1416.609653809006,None,space,0.4058594649977749,1416.609653809006,None,4.4187,1417.1449679710058,None,,,,,,,010,001,2022_Jul_06_1713,2-25_cond_decay_EYE-try,2021.2.3,163.60758921084565,
right,1.0,0.75,0,1,0,1,0,3,0,3,0,0,5,5,3,,,,,,,,,,,,,,,5s,1418.2041009490058,1419.2050917050074,1419.192886978999,None,1420.1933089280064,1422.6535887000064,1420.1933089280064,1422.6535887000064,1422.6535887000064,None,1422.6535887000064,None,space,0.3700046119920444,1422.6535887000064,None,2.4572,1423.1556056410045,None,,,,,,,010,001,2022_Jul_06_1713,2-25_cond_decay_EYE-try,2021.2.3,163.60758921084565,
left,0.75,1.0,0,1,0,1,0,3,0,3,0,0,6,6,0,,,,,,,,,,,,,,,5s,1424.203676877005,1425.2047939250042,1425.1925481579965,None,1426.1924365710001,1431.059398330006,1426.1924365710001,1431.059398330006,1431.059398330006,None,1431.059398330006,None,space,0.3401444030023413,1431.059398330006,None,4.8647,1431.5370653900027,None,,,,,,,010,001,2022_Jul_06_1713,2-25_cond_decay_EYE-try,2021.2.3,163.60758921084565,
left,0.75,1.0,0,1,0,1,0,3,0,3,0,0,7,7,1,,,,,,,,,,,,,,,5s,1432.5925953030091,1433.5930311789998,1433.5872243220074,None,1434.586532693007,1437.3862170380016,1434.586532693007,1437.3862170380016,1437.3862170380016,None,1437.3862170380016,None,space,0.38131602300563827,1437.3862170380016,None,2.7994,1437.8957760900084,None,,,,,,,010,001,2022_Jul_06_1713,2-25_cond_decay_EYE-try,2021.2.3,163.60758921084565,
left,1.0,0.75,1,1,0,1,0,3,0,3,0,0,8,8,7,,,,,,,,,,,,,,,5s,1438.9501109620032,1439.9506798780058,1439.9447398080083,None,1440.9441447800054,1442.5687638439995,1440.9441447800054,1442.5687638439995,1442.5687638439995,None,1442.5687638439995,None,space,0.4627413249982055,1442.5687638439995,None,1.6213,1443.1673467390065,None,,,,,,,010,001,2022_Jul_06_1713,2-25_cond_decay_EYE-try,2021.2.3,163.60758921084565,
right,1.0,0.75,0,1,0,1,0,3,0,3,0,0,9,9,6,,,,,,,,,,,,,,,5s,1444.2283094860031,1445.2285367300065,1445.2226753110008,None,1446.2232346250094,1448.8406449449976,1446.2232346250094,1448.8406449449976,1448.8406449449976,None,1448.8406449449976,None,space,0.3508785580052063,1448.8406449449976,None,2.6172,1449.319645416006,None,,,,,,,010,001,2022_Jul_06_1713,2-25_cond_decay_EYE-try,2021.2.3,163.60758921084565,
right,1.0,0.75,0,1,0,1,0,3,0,3,0,1,0,10,5,,,,,,,,,,,,,,,5s,1450.3729315360106,1451.374820241006,1451.3678721680044,None,1452.3686287199962,1453.270588037005,1452.3686287199962,1453.270588037005,1453.2640196840075,None,1453.2640196840075,None,space,0.5035112019977532,1453.2640196840075,None,0.8936,1453.895814952004,None,,,,,,,010,001,2022_Jul_06_1713,2-25_cond_decay_EYE-try,2021.2.3,163.60758921084565,
left,0.75,1.0,0,1,0,1,0,3,0,3,0,1,1,11,8,,,,,,,,,,,,,,,5s,1454.9493099039973,1455.9505051059969,1455.9436506760103,None,1456.94452017601,1458.9803351419978,1456.94452017601,1458.9803351419978,1458.9747669729986,None,1458.9747669729986,None,space,0.37676194800587837,1458.9747669729986,None,2.032,1459.4883591289981,None,,,,,,,010,001,2022_Jul_06_1713,2-25_cond_decay_EYE-try,2021.2.3,163.60758921084565,
left,1.0,0.75,1,1,0,1,0,3,0,3,0,1,2,12,7,,,,,,,,,,,,,,,5s,1460.537624028002,1461.5429130400007,1461.5366842310032,None,1462.5318391070032,1467.404607725999,1462.5318391070032,1467.404607725999,1467.404607725999,None,1467.404607725999,None,space,0.330881658999715,1467.404607725999,None,4.874,1467.8648261210037,None,,,,,,,010,001,2022_Jul_06_1713,2-25_cond_decay_EYE-try,2021.2.3,163.60758921084565,
left,0.75,1.0,0,1,0,1,0,3,0,3,0,1,3,13,0,,,,,,,,,,,,,,,5s,1468.9189548590075,1469.91923627301,1469.9134760720044,None,1470.9138884540007,1471.821027665006,1470.9138884540007,1471.821027665006,1471.8155139380106,None,1471.8155139380106,None,space,0.5040211049927166,1471.8155139380106,None,0.8989,1472.4573269679968,None,,,,,,,010,001,2022_Jul_06_1713,2-25_cond_decay_EYE-try,2021.2.3,163.60758921084565,
left,0.75,1.0,0,1,0,1,0,3,0,3,0,1,4,14,1,,,,,,,,,,,,,,,5s,1473.5186342590023,1474.5190479919984,1474.5133097930084,None,1475.5133070370066,1478.1797595120006,1475.5133070370066,1478.1797595120006,1478.1743327830045,None,1478.1743327830045,None,space,0.3453048380033579,1478.1743327830045,None,2.6627,1478.6521418240009,None,,,,,,,010,001,2022_Jul_06_1713,2-25_cond_decay_EYE-try,2021.2.3,163.60758921084565,
right,1.0,0.75,0,1,0,1,0,3,0,3,0,1,5,15,3,,,,,,,,,,,,,,,5s,1479.7072323949978,1480.7069161960098,1480.7011805939983,None,1481.7007728870085,1482.5312289020076,1481.7007728870085,1482.5312289020076,1482.5312289020076,None,1482.5312289020076,None,space,0.4842976310028462,1482.5312289020076,None,0.8309,1483.1433758070052,None,,,,,,,010,001,2022_Jul_06_1713,2-25_cond_decay_EYE-try,2021.2.3,163.60758921084565,
right,1.0,0.75,0,1,0,1,0,3,0,3,0,1,6,16,4,,,,,,,,,,,,,,,5s,1484.196790670001,1485.1981081590056,1485.1922327840002,None,1486.192316614004,1486.8760535170004,1486.192316614004,1486.8760535170004,1486.8693102760008,None,1486.8693102760008,None,None,,1486.8693102760008,None,0.6753,1487.996886947003,None,,,,,,,010,001,2022_Jul_06_1713,2-25_cond_decay_EYE-try,2021.2.3,163.60758921084565,
right,0.75,1.0,1,1,0,1,0,3,0,3,0,1,7,17,2,,,,,,,,,,,,,,,5s,1489.040024439004,1490.040246753997,1490.0344820440077,None,1491.0345734840084,1492.3559792140004,1491.0345734840084,1492.3559792140004,1492.3488722129987,None,1492.3488722129987,None,space,0.43464124099409673,1492.3488722129987,None,1.3135,1492.9180507560086,None,,,,,,,010,001,2022_Jul_06_1713,2-25_cond_decay_EYE-try,2021.2.3,163.60758921084565,
left,0.75,1.0,0,1,0,1,0,3,0,3,0,1,8,18,9,,,,,,,,,,,,,,,5s,1493.9680895979982,1494.9681524420012,1494.9622619810107,None,1495.961682979003,1496.883327649004,1495.961682979003,1496.883327649004,1496.8761051230103,None,1496.8761051230103,None,space,0.40339985699392855,1496.8761051230103,None,0.911,1497.415518891008,None,,,,,,,010,001,2022_Jul_06_1713,2-25_cond_decay_EYE-try,2021.2.3,163.60758921084565,
right,1.0,0.75,0,1,0,1,0,3,0,3,0,1,9,19,6,,,,,,,,,,,,,,,5s,1498.476278946997,1499.4770325340069,1499.470335787002,None,1500.4711338659981,1504.135659255,1500.4711338659981,1504.135659255,1504.129909426003,None,1504.129909426003,None,space,0.45361514200340025,1504.129909426003,None,3.658,1504.7121573760087,None,,,,,,,010,001,2022_Jul_06_1713,2-25_cond_decay_EYE-try,2021.2.3,163.60758921084565,
,,,,1,0,1,0,3,0,3,0,,,,,,,,,,,,,,,,,,,,,,,,,,,,,,,,,,,,,,,,,,,,,010,001,2022_Jul_06_1713,2-25_cond_decay_EYE-try,2021.2.3,163.60758921084565,
,,,,1,0,1,0,,,,,,,,,,,,,,,,,,,,,,,,,,,,,,,,,,,,,,,,,,,1505.6087711930013,None,1505.6087711930013,None,1505.6087711930013,None,010,001,2022_Jul_06_1713,2-25_cond_decay_EYE-try,2021.2.3,163.60758921084565,
left,0.75,1.0,0,2,0,2,0,0,0,0,0,0,0,0,1,,,,,,,,,1510.6083487970027,None,1510.6083487970027,None,1510.6083487970027,None,3s,1593.1649352640088,1594.1670728480094,1594.1546733389987,None,1595.1546919760003,1597.7480275510025,1595.1546919760003,1597.7480275510025,1597.7480275510025,None,1597.7480275510025,None,space,0.3955111399991438,1597.7480275510025,None,2.5896,1598.280051765003,None,,,,,,,010,001,2022_Jul_06_1713,2-25_cond_decay_EYE-try,2021.2.3,163.60758921084565,
right,1.0,0.75,0,2,0,2,0,0,0,0,0,0,1,1,4,,,,,,,,,,,,,,,3s,1599.3410165780078,1600.3429792270035,1600.3297640170058,None,1601.3306811470102,1602.578348480005,1601.3306811470102,1602.578348480005,1602.578348480005,None,1602.578348480005,None,space,0.3491758089949144,1602.578348480005,None,1.244,1603.0567424670007,None,,,,,,,010,001,2022_Jul_06_1713,2-25_cond_decay_EYE-try,2021.2.3,163.60758921084565,
right,0.75,1.0,1,2,0,2,0,0,0,0,0,0,2,2,2,,,,,,,,,,,,,,,3s,1604.1060374020017,1605.1058152010082,1605.1003123249975,None,1606.0995303399977,1606.6994223770016,1606.0995303399977,1606.6994223770016,1606.6994223770016,None,1606.6994223770016,None,space,0.4921158109937096,1606.6994223770016,None,0.5985,1607.3286180700088,None,,,,,,,010,001,2022_Jul_06_1713,2-25_cond_decay_EYE-try,2021.2.3,163.60758921084565,
right,1.0,0.75,0,2,0,2,0,0,0,0,0,0,3,3,3,,,,,,,,,,,,,,,3s,1608.383433586001,1609.384044202001,1609.3781547789986,None,1610.3788761739997,1613.0685774360027,1610.3788761739997,1613.0685774360027,1613.0617305610067,None,1613.0617305610067,None,space,0.3218253920058487,1613.0617305610067,None,2.6818,1613.5170393660082,None,,,,,,,010,001,2022_Jul_06_1713,2-25_cond_decay_EYE-try,2021.2.3,163.60758921084565,
right,1.0,0.75,0,2,0,2,0,0,0,0,0,0,4,4,9,,,,,,,,,,,,,,,3s,1614.559285937008,1615.5600740759983,1615.5486373669992,None,1616.547700961004,1619.3118063410075,1616.547700961004,1619.3118063410075,1619.3118063410075,None,1619.3118063410075,None,space,0.31973931699758396,1619.3118063410075,None,2.7618,1619.7594405170094,None,,,,,,,010,001,2022_Jul_06_1713,2-25_cond_decay_EYE-try,2021.2.3,163.60758921084565,
left,0.75,1.0,0,2,0,2,0,0,0,0,0,0,5,5,0,,,,,,,,,,,,,,,3s,1620.8132001180056,1621.814291401999,1621.8029950030032,None,1622.8034091779991,1623.7904765849962,1622.8034091779991,1623.7904765849962,1623.7904765849962,None,1623.7904765849962,None,space,0.4890719109971542,1623.7904765849962,None,0.9867,1624.4081204820104,None,,,,,,,010,001,2022_Jul_06_1713,2-25_cond_decay_EYE-try,2021.2.3,163.60758921084565,
left,0.75,1.0,0,2,0,2,0,0,0,0,0,0,6,6,6,,,,,,,,,,,,,,,3s,1625.4633162630053,1626.4633961460058,1626.457512228997,None,1627.4565602939983,1629.232493552001,1627.4565602939983,1629.232493552001,1629.232493552001,None,1629.232493552001,None,space,0.3430404980026651,1629.232493552001,None,1.7752,1629.7039279430028,None,,,,,,,010,001,2022_Jul_06_1713,2-25_cond_decay_EYE-try,2021.2.3,163.60758921084565,
left,0.75,1.0,0,2,0,2,0,0,0,0,0,0,7,7,5,,,,,,,,,,,,,,,3s,1630.7588921029965,1631.7604338100064,1631.7475255300087,None,1632.7474192740046,1635.6568754699983,1632.7474192740046,1635.6568754699983,1635.6568754699983,None,1635.6568754699983,None,space,0.31072289300209377,1635.6568754699983,None,2.9052,1636.1040578670072,None,,,,,,,010,001,2022_Jul_06_1713,2-25_cond_decay_EYE-try,2021.2.3,163.60758921084565,
left,0.75,1.0,0,2,0,2,0,0,0,0,0,0,8,8,7,,,,,,,,,,,,,,,3s,1637.1595020560053,1638.1605478410056,1638.1482447200106,None,1639.1484246309992,1640.577791290998,1639.1484246309992,1640.577791290998,1640.577791290998,None,1640.577791290998,None,space,0.34186174599744845,1640.577791290998,None,1.4279,1641.055483602002,None,,,,,,,010,001,2022_Jul_06_1713,2-25_cond_decay_EYE-try,2021.2.3,163.60758921084565,
left,1.0,0.75,1,2,0,2,0,0,0,0,0,0,9,9,8,,,,,,,,,,,,,,,3s,1642.1043678650021,1643.105107165,1643.0929118950007,None,1644.0993072929996,1646.2551527120086,1644.0993072929996,1646.2551527120086,1646.249489506008,None,1646.249489506008,None,space,0.3341143920115428,1646.249489506008,None,2.1501,1646.7111892890098,None,,,,,,,010,001,2022_Jul_06_1713,2-25_cond_decay_EYE-try,2021.2.3,163.60758921084565,
left,0.75,1.0,0,2,0,2,0,0,0,0,0,1,0,10,0,,,,,,,,,,,,,,,3s,1647.7644470750092,1648.7662366709992,1648.7595956270088,None,1649.7603163730091,1649.976702319007,1649.7603163730091,1649.976702319007,1649.9701997049997,None,1649.9701997049997,None,space,0.4693613720010035,1649.9701997049997,None,0.2089,1650.5771196590067,None,,,,,,,010,001,2022_Jul_06_1713,2-25_cond_decay_EYE-try,2021.2.3,163.60758921084565,
right,1.0,0.75,0,2,0,2,0,0,0,0,0,1,1,11,3,,,,,,,,,,,,,,,3s,1651.6374768890091,1652.6390032530035,1652.6267149790074,None,1653.6265156590089,1655.5720991840062,1653.6265156590089,1655.5720991840062,1655.5720991840062,None,1655.5720991840062,None,space,0.3634387769998284,1655.5720991840062,None,1.9435,1656.0735441290017,None,,,,,,,010,001,2022_Jul_06_1713,2-25_cond_decay_EYE-try,2021.2.3,163.60758921084565,
right,0.75,1.0,1,2,0,2,0,0,0,0,0,1,2,12,2,,,,,,,,,,,,,,,3s,1657.1285894640023,1658.1297269610077,1658.1234718869964,None,1659.1229855560086,1660.2261214290047,1659.1229855560086,1660.2261214290047,1660.2196713540034,None,1660.2196713540034,None,space,0.3638730530074099,1660.2196713540034,None,1.0926,1660.7111204250104,None,,,,,,,010,001,2022_Jul_06_1713,2-25_cond_decay_EYE-try,2021.2.3,163.60758921084565,
left,0.75,1.0,0,2,0,2,0,0,0,0,0,1,3,13,5,,,,,,,,,,,,,,,3s,1661.7659338230005,1662.7662208210095,1662.7592404250026,None,1663.7593375520082,1665.463220481004,1663.7593375520082,1665.463220481004,1665.463220481004,None,1665.463220481004,None,space,0.3603165749955224,1665.463220481004,None,1.702,1665.9581225840084,None,,,,,,,010,001,2022_Jul_06_1713,2-25_cond_decay_EYE-try,2021.2.3,163.60758921084565,
right,1.0,0.75,0,2,0,2,0,0,0,0,0,1,4,14,1,,,,,,,,,,,,,,,3s,1667.0071288530016,1668.0076397380035,1668.0016655340005,None,1669.002323563007,1669.8557359719998,1669.002323563007,1669.8557359719998,1669.8488909220032,None,1669.8488909220032,None,space,0.41466296500584576,1669.8488909220032,None,0.8443,1670.4006655959965,None,,,,,,,010,001,2022_Jul_06_1713,2-25_cond_decay_EYE-try,2021.2.3,163.60758921084565,
left,0.75,1.0,0,2,0,2,0,0,0,0,0,1,5,15,6,,,,,,,,,,,,,,,3s,1671.454986345998,1672.4563533140026,1672.450202307009,None,1673.450341816002,1675.7047888969973,1673.450341816002,1675.7047888969973,1675.6980151480093,None,1675.6980151480093,None,space,0.32553516900225077,1675.6980151480093,None,2.2464,1676.1537577620038,None,,,,,,,010,001,2022_Jul_06_1713,2-25_cond_decay_EYE-try,2021.2.3,163.60758921084565,
right,1.0,0.75,0,2,0,2,0,0,0,0,0,1,6,16,9,,,,,,,,,,,,,,,3s,1677.2125407770072,1678.2139174280019,1678.2018691289995,None,1679.2018789860012,1680.6867482579983,1679.2018789860012,1680.6867482579983,1680.6867482579983,None,1680.6867482579983,None,space,0.38479904500127304,1680.6867482579983,None,1.4853,1681.2062348150066,None,,,,,,,010,001,2022_Jul_06_1713,2-25_cond_decay_EYE-try,2021.2.3,163.60758921084565,
left,1.0,0.75,1,2,0,2,0,0,0,0,0,1,7,17,8,,,,,,,,,,,,,,,3s,1682.267248136006,1683.268995090999,1683.2622384650022,None,1684.2622608770034,1686.7585666180094,1684.2622608770034,1686.7585666180094,1686.7519194850029,None,1686.7519194850029,None,space,0.32763085199985653,1686.7519194850029,None,2.4884,1687.2077418929985,None,,,,,,,010,001,2022_Jul_06_1713,2-25_cond_decay_EYE-try,2021.2.3,163.60758921084565,
right,1.0,0.75,0,2,0,2,0,0,0,0,0,1,8,18,4,,,,,,,,,,,,,,,3s,1688.2676898200007,1689.2685484530084,1689.2625346730056,None,1690.2624572750065,1693.2191743310104,1690.2624572750065,1693.2191743310104,1693.212475111999,None,1693.212475111999,None,space,0.34708259199396707,1693.212475111999,None,2.9492,1693.6979097690055,None,,,,,,,010,001,2022_Jul_06_1713,2-25_cond_decay_EYE-try,2021.2.3,163.60758921084565,
left,0.75,1.0,0,2,0,2,0,0,0,0,0,1,9,19,7,,,,,,,,,,,,,,,3s,1694.751810982998,1695.7535814080038,1695.7473762260051,None,1696.7470581750094,1699.335431999003,1696.7470581750094,1699.335431999003,1699.335431999003,None,1699.335431999003,None,space,0.28812426699732896,1699.335431999003,None,2.588,1699.7528898190067,None,,,,,,,010,001,2022_Jul_06_1713,2-25_cond_decay_EYE-try,2021.2.3,163.60758921084565,
,,,,2,0,2,0,0,0,0,0,,,,,,,,,,,,,,,,,,,,,,,,,,,,,,,,,,,,,,,,,,,,,010,001,2022_Jul_06_1713,2-25_cond_decay_EYE-try,2021.2.3,163.60758921084565,
right,1.0,0.75,0,2,0,2,0,1,0,1,0,0,0,0,4,,,,,,,,,1700.6486455240083,None,1700.6486455240083,None,1700.6486455240083,None,1s,1702.757661650001,1703.7594839710073,1703.7466705050028,None,1704.747333421008,1705.5164724400092,1704.747333421008,1705.5164724400092,1705.5164724400092,None,1705.5164724400092,None,space,0.3630774509947514,1705.5164724400092,None,0.7692,1706.012017001005,None,,,,,,,010,001,2022_Jul_06_1713,2-25_cond_decay_EYE-try,2021.2.3,163.60758921084565,
right,1.0,0.75,0,2,0,2,0,1,0,1,0,0,1,1,2,,,,,,,,,,,,,,,1s,1707.0627527790057,1708.0685998010013,1708.0557451729983,None,1709.056428641008,1709.3406921670103,1709.056428641008,1709.3406921670103,1709.3406921670103,None,1709.3406921670103,None,space,0.3628606540005421,1709.3406921670103,None,0.2833,1709.8365566840075,None,,,,,,,010,001,2022_Jul_06_1713,2-25_cond_decay_EYE-try,2021.2.3,163.60758921084565,
right,1.0,0.75,0,2,0,2,0,1,0,1,0,0,2,2,1,,,,,,,,,,,,,,,1s,1710.884976964997,1711.8859430180019,1711.879983523002,None,1712.8802332790074,1713.1046260669973,1712.8802332790074,1713.1046260669973,1713.1046260669973,None,1713.1046260669973,None,space,0.390988204992027,1713.1046260669973,None,0.2234,1713.6260046509997,None,,,,,,,010,001,2022_Jul_06_1713,2-25_cond_decay_EYE-try,2021.2.3,163.60758921084565,
left,0.75,1.0,0,2,0,2,0,1,0,1,0,0,3,3,9,,,,,,,,,,,,,,,1s,1714.6854867970105,1715.686583732997,1715.6743539220042,None,1716.6743202939979,1717.2677275419992,1716.6743202939979,1717.2677275419992,1717.2677275419992,None,1717.2677275419992,None,space,0.3158887970057549,1717.2677275419992,None,0.5913,1717.7209067430085,None,,,,,,,010,001,2022_Jul_06_1713,2-25_cond_decay_EYE-try,2021.2.3,163.60758921084565,
left,0.75,1.0,0,2,0,2,0,1,0,1,0,0,4,4,6,,,,,,,,,,,,,,,1s,1718.776452324004,1719.7771680770093,1719.7714104290062,None,1720.7714211770071,1721.5893305970094,1720.7714211770071,1721.5893305970094,1721.5893305970094,None,1721.5893305970094,None,space,0.29822909699578304,1721.5893305970094,None,0.8169,1722.0247870379972,None,,,,,,,010,001,2022_Jul_06_1713,2-25_cond_decay_EYE-try,2021.2.3,163.60758921084565,
left,1.0,0.75,1,2,0,2,0,1,0,1,0,0,5,5,8,,,,,,,,,,,,,,,1s,1723.078707588007,1724.080232955006,1724.0744638290053,None,1725.0745138369966,1725.6618828850042,1725.0745138369966,1725.6618828850042,1725.6551804430055,None,1725.6551804430055,None,space,0.29639148600108456,1725.6551804430055,None,0.5774,1726.0799151200044,None,,,,,,,010,001,2022_Jul_06_1713,2-25_cond_decay_EYE-try,2021.2.3,163.60758921084565,
right,1.0,0.75,0,2,0,2,0,1,0,1,0,0,6,6,7,,,,,,,,,,,,,,,1s,1727.13323752601,1728.1348411210056,1728.1290862970054,None,1729.1290291019977,1729.9342327490012,1729.1290291019977,1729.9342327490012,1729.9342327490012,None,1729.9342327490012,None,space,0.33731533998798113,1729.9342327490012,None,0.8042,1730.400522174008,None,,,,,,,010,001,2022_Jul_06_1713,2-25_cond_decay_EYE-try,2021.2.3,163.60758921084565,
left,0.75,1.0,0,2,0,2,0,1,0,1,0,0,7,7,0,,,,,,,,,,,,,,,1s,1731.4551150379993,1732.4562932210101,1732.4494396460068,None,1733.45033361901,1734.1518376900058,1733.45033361901,1734.1518376900058,1734.1450518900092,None,1734.1450518900092,None,space,0.2865143820090452,1734.1450518900092,None,0.6927,1734.5633362680092,None,,,,,,,010,001,2022_Jul_06_1713,2-25_cond_decay_EYE-try,2021.2.3,163.60758921084565,
right,1.0,0.75,0,2,0,2,0,1,0,1,0,0,8,8,5,,,,,,,,,,,,,,,1s,1735.6183097550092,1736.619205202005,1736.6070338840073,None,1737.6074634190009,1738.6070312520023,1737.6074634190009,1738.6070312520023,1738.6070312520023,None,1738.6070312520023,None,space,0.3125210370053537,1738.6070312520023,None,0.9967,1739.0497583899996,None,,,,,,,010,001,2022_Jul_06_1713,2-25_cond_decay_EYE-try,2021.2.3,163.60758921084565,
left,0.75,1.0,0,2,0,2,0,1,0,1,0,0,9,9,3,,,,,,,,,,,,,,,1s,1740.1035451479984,1741.103965303002,1741.0979242699977,None,1742.097909069009,1742.7226603570016,1742.097909069009,1742.7226603570016,1742.7226603570016,None,1742.7226603570016,None,space,0.30895264600985684,1742.7226603570016,None,0.6251,1743.1699752380082,None,,,,,,,010,001,2022_Jul_06_1713,2-25_cond_decay_EYE-try,2021.2.3,163.60758921084565,
left,0.75,1.0,0,2,0,2,0,1,0,1,0,1,0,10,9,,,,,,,,,,,,,,,1s,1744.2199018469983,1745.2190760049998,1745.2133780669974,None,1746.2130260039994,1746.4317436130077,1746.2130260039994,1746.4317436130077,1746.4317436130077,None,1746.4317436130077,None,space,0.44781932000478264,1746.4317436130077,None,0.2163,1747.0123841890018,None,,,,,,,010,001,2022_Jul_06_1713,2-25_cond_decay_EYE-try,2021.2.3,163.60758921084565,
right,1.0,0.75,0,2,0,2,0,1,0,1,0,1,1,11,7,,,,,,,,,,,,,,,1s,1748.0732541010075,1749.0735277689964,1749.0618921190035,None,1750.0619709199964,1750.6620674450096,1750.0619709199964,1750.6620674450096,1750.6620674450096,None,1750.6620674450096,None,space,0.3454832520073978,1750.6620674450096,None,0.5995,1751.1448849270091,None,,,,,,,010,001,2022_Jul_06_1713,2-25_cond_decay_EYE-try,2021.2.3,163.60758921084565,
right,1.0,0.75,0,2,0,2,0,1,0,1,0,1,2,12,5,,,,,,,,,,,,,,,1s,1752.2015813390026,1753.2014234859962,1753.1954187160009,None,1754.1947337599995,1754.91039997201,1754.1947337599995,1754.91039997201,1754.91039997201,None,1754.91039997201,None,space,0.3451551440084586,1754.91039997201,None,0.7156,1755.393126103998,None,,,,,,,010,001,2022_Jul_06_1713,2-25_cond_decay_EYE-try,2021.2.3,163.60758921084565,
left,1.0,0.75,1,2,0,2,0,1,0,1,0,1,3,13,8,,,,,,,,,,,,,,,1s,1756.4432912850025,1757.4429642680043,1757.4373034270102,None,1758.4372435280093,1759.370206460997,1758.4372435280093,1759.370206460997,1759.370206460997,None,1759.370206460997,None,space,0.36536470500868745,1759.370206460997,None,0.9335,1759.8728885989985,None,,,,,,,010,001,2022_Jul_06_1713,2-25_cond_decay_EYE-try,2021.2.3,163.60758921084565,
right,1.0,0.75,0,2,0,2,0,1,0,1,0,1,4,14,1,,,,,,,,,,,,,,,1s,1760.9327627470047,1761.9346453550097,1761.9278174670035,None,1762.928528327,1763.673636549007,1762.928528327,1763.673636549007,1763.6680623220018,None,1763.6680623220018,None,space,0.33156148399575613,1763.6680623220018,None,0.7439,1764.1278861699975,None,,,,,,,010,001,2022_Jul_06_1713,2-25_cond_decay_EYE-try,2021.2.3,163.60758921084565,
left,0.75,1.0,0,2,0,2,0,1,0,1,0,1,5,15,0,,,,,,,,,,,,,,,1s,1765.1876902280055,1766.1883542720025,1766.1824280180008,None,1767.1822121980076,1768.011265989,1767.1822121980076,1768.011265989,1768.0056021470082,None,1768.0056021470082,None,space,0.3459684980043676,1768.0056021470082,None,0.8204,1768.4794014910003,None,,,,,,,010,001,2022_Jul_06_1713,2-25_cond_decay_EYE-try,2021.2.3,163.60758921084565,
left,0.75,1.0,0,2,0,2,0,1,0,1,0,1,6,16,3,,,,,,,,,,,,,,,1s,1769.5334787460015,1770.5338485390093,1770.527856959001,None,1771.5283135150094,1772.0004945569963,1771.5283135150094,1772.0004945569963,1771.9938836189976,None,1771.9938836189976,None,space,0.4137432519928552,1771.9938836189976,None,0.4629,1772.5448137019994,None,,,,,,,010,001,2022_Jul_06_1713,2-25_cond_decay_EYE-try,2021.2.3,163.60758921084565,
left,0.75,1.0,0,2,0,2,0,1,0,1,0,1,7,17,6,,,,,,,,,,,,,,,1s,1773.5951074760087,1774.5944862730103,1774.5882934330002,None,1775.588325870005,1775.8852326089982,1775.588325870005,1775.8852326089982,1775.8852326089982,None,1775.8852326089982,None,space,0.40233841200824827,1775.8852326089982,None,0.2923,1776.424234881997,None,,,,,,,010,001,2022_Jul_06_1713,2-25_cond_decay_EYE-try,2021.2.3,163.60758921084565,
right,0.75,1.0,1,2,0,2,0,1,0,1,0,1,8,18,4,,,,,,,,,,,,,,,1s,1777.4850740920083,1778.485379538004,1778.4731084560044,None,1779.479006492009,1779.958185837997,1779.479006492009,1779.958185837997,1779.9526028410037,None,1779.9526028410037,None,space,0.3349586529948283,1779.9526028410037,None,0.4744,1780.4239911559998,None,,,,,,,010,001,2022_Jul_06_1713,2-25_cond_decay_EYE-try,2021.2.3,163.60758921084565,
right,1.0,0.75,0,2,0,2,0,1,0,1,0,1,9,19,2,,,,,,,,,,,,,,,1s,1781.4797626340005,1782.4790615820093,1782.4733389280009,None,1783.4729791110003,1783.7466229870042,1783.4729791110003,1783.7466229870042,1783.7466229870042,None,1783.7466229870042,None,space,0.3569510450033704,1783.7466229870042,None,0.2726,1784.2353224850085,None,,,,,,,010,001,2022_Jul_06_1713,2-25_cond_decay_EYE-try,2021.2.3,163.60758921084565,
,,,,2,0,2,0,1,0,1,0,,,,,,,,,,,,,,,,,,,,,,,,,,,,,,,,,,,,,,,,,,,,,010,001,2022_Jul_06_1713,2-25_cond_decay_EYE-try,2021.2.3,163.60758921084565,
left,0.75,1.0,0,2,0,2,0,2,0,2,0,0,0,0,3,,,,,,,,,1785.121658930002,None,1785.121658930002,None,1785.121658930002,None,5s,1801.7748520230089,1802.775810113002,1802.7643390599987,None,1803.7636817059974,1808.5099096220074,1803.7636817059974,1808.5099096220074,1808.5099096220074,None,1808.5099096220074,None,space,0.36972858700028155,1808.5099096220074,None,4.7435,1809.0168392400083,None,,,,,,,010,001,2022_Jul_06_1713,2-25_cond_decay_EYE-try,2021.2.3,163.60758921084565,
left,0.75,1.0,0,2,0,2,0,2,0,2,0,0,1,1,2,,,,,,,,,,,,,,,5s,1810.0714904510096,1811.0730817529984,1811.061107667003,None,1812.067152937001,1815.9091029510018,1812.067152937001,1815.9091029510018,1815.9024098960072,None,1815.9024098960072,None,space,0.44919140700949356,1815.9024098960072,None,3.8343,1816.479300171006,None,,,,,,,010,001,2022_Jul_06_1713,2-25_cond_decay_EYE-try,2021.2.3,163.60758921084565,
right,0.75,1.0,1,2,0,2,0,2,0,2,0,0,2,2,1,,,,,,,,,,,,,,,5s,1817.5386803380097,1818.5396016430022,1818.5270178509963,None,1819.5273653540062,1822.2368202220096,1819.5273653540062,1822.2368202220096,1822.2368202220096,None,1822.2368202220096,None,space,0.4107433699973626,1822.2368202220096,None,2.7071,1822.7811161099962,None,,,,,,,010,001,2022_Jul_06_1713,2-25_cond_decay_EYE-try,2021.2.3,163.60758921084565,
left,0.75,1.0,0,2,0,2,0,2,0,2,0,0,3,3,8,,,,,,,,,,,,,,,5s,1823.8351091439981,1824.8360985550098,1824.8305003200076,None,1825.830008696008,1827.937790505006,1825.830008696008,1827.937790505006,1827.9322008879972,None,1827.9322008879972,None,space,0.5233687170111807,1827.9322008879972,None,2.0991,1828.593097031,None,,,,,,,010,001,2022_Jul_06_1713,2-25_cond_decay_EYE-try,2021.2.3,163.60758921084565,
right,1.0,0.75,0,2,0,2,0,2,0,2,0,0,4,4,4,,,,,,,,,,,,,,,5s,1829.653579468999,1830.6547196510073,1830.648886288007,None,1831.6487913309975,1835.756597850006,1831.6487913309975,1835.756597850006,1835.7497601900104,None,1835.7497601900104,None,space,0.4178295400051866,1835.7497601900104,None,4.1012,1836.2973554570053,None,,,,,,,010,001,2022_Jul_06_1713,2-25_cond_decay_EYE-try,2021.2.3,163.60758921084565,
left,1.0,0.75,1,2,0,2,0,2,0,2,0,0,5,5,6,,,,,,,,,,,,,,,5s,1837.3505341639975,1838.3512191530026,1838.339003482004,None,1839.3394189300016,1843.73758915301,1839.3394189300016,1843.73758915301,1843.7319036980043,None,1843.7319036980043,None,space,0.3716686610132456,1843.7319036980043,None,4.3886,1844.2407521179994,None,,,,,,,010,001,2022_Jul_06_1713,2-25_cond_decay_EYE-try,2021.2.3,163.60758921084565,
right,1.0,0.75,0,2,0,2,0,2,0,2,0,0,6,6,9,,,,,,,,,,,,,,,5s,1845.3018236290081,1846.3023213700071,1846.2966869520023,None,1847.2971827450092,1851.9392894570046,1847.2971827450092,1851.9392894570046,1851.9392894570046,None,1851.9392894570046,None,space,0.35628755000652745,1851.9392894570046,None,4.6417,1852.4242743970099,None,,,,,,,010,001,2022_Jul_06_1713,2-25_cond_decay_EYE-try,2021.2.3,163.60758921084565,
right,1.0,0.75,0,2,0,2,0,2,0,2,0,0,7,7,0,,,,,,,,,,,,,,,5s,1853.4790522770054,1854.4788013939979,1854.4721432670049,None,1855.472447704,1857.5637415230012,1855.472447704,1857.5637415230012,1857.5637415230012,None,1857.5637415230012,None,space,0.4118343189911684,1857.5637415230012,None,2.0859,1858.1081492860103,None,,,,,,,010,001,2022_Jul_06_1713,2-25_cond_decay_EYE-try,2021.2.3,163.60758921084565,
left,0.75,1.0,0,2,0,2,0,2,0,2,0,0,8,8,5,,,,,,,,,,,,,,,5s,1859.156546972008,1860.1575317030074,1860.1507182110072,None,1861.151350936998,1861.4586287359998,1861.151350936998,1861.4586287359998,1861.4529634420032,None,1861.4529634420032,None,space,0.4985976629977813,1861.4529634420032,None,0.2974,1862.0829974730004,None,,,,,,,010,001,2022_Jul_06_1713,2-25_cond_decay_EYE-try,2021.2.3,163.60758921084565,
right,1.0,0.75,0,2,0,2,0,2,0,2,0,0,9,9,7,,,,,,,,,,,,,,,5s,1863.1375590840034,1864.139474954005,1864.126459859006,None,1865.1274147530057,1868.2486240380094,1865.1274147530057,1868.2486240380094,1868.2486240380094,None,1868.2486240380094,None,None,,1868.2486240380094,None,3.119,1869.3746848559967,None,,,,,,,010,001,2022_Jul_06_1713,2-25_cond_decay_EYE-try,2021.2.3,163.60758921084565,
right,0.75,1.0,1,2,0,2,0,2,0,2,0,1,0,10,1,,,,,,,,,,,,,,,5s,1870.4231872910023,1871.4234217290068,1871.4174589400063,None,1872.4173641640082,1874.1023900910077,1872.4173641640082,1874.1023900910077,1874.0956638770003,None,1874.0956638770003,None,space,0.3519986030005384,1874.0956638770003,None,1.6747,1874.5801219990099,None,,,,,,,010,001,2022_Jul_06_1713,2-25_cond_decay_EYE-try,2021.2.3,163.60758921084565,
right,1.0,0.75,0,2,0,2,0,2,0,2,0,1,1,11,0,,,,,,,,,,,,,,,5s,1875.6287218220095,1876.630208750008,1876.617891750997,None,1877.6173556150025,1879.9874204100051,1877.6173556150025,1879.9874204100051,1879.9874204100051,None,1879.9874204100051,None,space,0.4121404389879899,1879.9874204100051,None,2.3694,1880.53797466401,None,,,,,,,010,001,2022_Jul_06_1713,2-25_cond_decay_EYE-try,2021.2.3,163.60758921084565,
left,0.75,1.0,0,2,0,2,0,2,0,2,0,1,2,12,8,,,,,,,,,,,,,,,5s,1881.5979193420062,1882.5989295519976,1882.593058257,None,1883.593628675997,1884.7507999899972,1883.593628675997,1884.7507999899972,1884.7441874340002,None,1884.7441874340002,None,space,0.4553853959951084,1884.7441874340002,None,1.1467,1885.337173980006,None,,,,,,,010,001,2022_Jul_06_1713,2-25_cond_decay_EYE-try,2021.2.3,163.60758921084565,
right,1.0,0.75,0,2,0,2,0,2,0,2,0,1,3,13,9,,,,,,,,,,,,,,,5s,1886.3923388179974,1887.3932586400042,1887.3876834390103,None,1888.38722289601,1891.5430711540102,1888.38722289601,1891.5430711540102,1891.5374223890103,None,1891.5374223890103,None,space,0.3501490479975473,1891.5374223890103,None,3.1479,1892.0171338390064,None,,,,,,,010,001,2022_Jul_06_1713,2-25_cond_decay_EYE-try,2021.2.3,163.60758921084565,
left,0.75,1.0,0,2,0,2,0,2,0,2,0,1,4,14,3,,,,,,,,,,,,,,,5s,1893.0714983869984,1894.072309234005,1894.0657225160103,None,1895.0661982500023,1900.0589696079987,1895.0661982500023,1900.0589696079987,1900.0520628320082,None,1900.0520628320082,None,space,0.3555042510124622,1900.0520628320082,None,4.9843,1900.5433543960098,None,,,,,,,010,001,2022_Jul_06_1713,2-25_cond_decay_EYE-try,2021.2.3,163.60758921084565,
left,0.75,1.0,0,2,0,2,0,2,0,2,0,1,5,15,2,,,,,,,,,,,,,,,5s,1901.5995915200037,1902.598932574998,1902.5930155100068,None,1903.5933759610052,1908.5556687759963,1903.5933759610052,1908.5556687759963,1908.548959067004,None,1908.548959067004,None,space,0.33862614900863264,1908.548959067004,None,4.9531,1909.0171576170105,None,,,,,,,010,001,2022_Jul_06_1713,2-25_cond_decay_EYE-try,2021.2.3,163.60758921084565,
left,1.0,0.75,1,2,0,2,0,2,0,2,0,1,6,16,6,,,,,,,,,,,,,,,5s,1910.0708102759963,1911.07199472301,1911.0599660290027,None,1912.0597961029998,1914.5262131280033,1912.0597961029998,1914.5262131280033,1914.5262131280033,None,1914.5262131280033,None,space,0.3773618550039828,1914.5262131280033,None,2.4651,1915.040671087001,None,,,,,,,010,001,2022_Jul_06_1713,2-25_cond_decay_EYE-try,2021.2.3,163.60758921084565,
right,1.0,0.75,0,2,0,2,0,2,0,2,0,1,7,17,7,,,,,,,,,,,,,,,5s,1916.0953600409994,1917.0958010070026,1917.0836659049965,None,1918.0840809329966,1918.4168292090035,1918.0840809329966,1918.4168292090035,1918.4168292090035,None,1918.4168292090035,None,space,0.45474662201013416,1918.4168292090035,None,0.3322,1918.9985682870029,None,,,,,,,010,001,2022_Jul_06_1713,2-25_cond_decay_EYE-try,2021.2.3,163.60758921084565,
right,1.0,0.75,0,2,0,2,0,2,0,2,0,1,8,18,4,,,,,,,,,,,,,,,5s,1920.0532357720076,1921.0530293900083,1921.0471371520107,None,1922.0477409550076,1923.5984325590107,1922.0477409550076,1923.5984325590107,1923.5984325590107,None,1923.5984325590107,None,space,0.35314016399206594,1923.5984325590107,None,1.55,1924.0887166230095,None,,,,,,,010,001,2022_Jul_06_1713,2-25_cond_decay_EYE-try,2021.2.3,163.60758921084565,
left,0.75,1.0,0,2,0,2,0,2,0,2,0,1,9,19,5,,,,,,,,,,,,,,,5s,1925.1440734439966,1926.144637393998,1926.1386271719966,None,1927.1378968070057,1929.0531123469991,1927.1378968070057,1929.0531123469991,1929.0531123469991,None,1929.0531123469991,None,space,0.4184736739989603,1929.0531123469991,None,1.9155,1929.603941622001,None,,,,,,,010,001,2022_Jul_06_1713,2-25_cond_decay_EYE-try,2021.2.3,163.60758921084565,
,,,,2,0,2,0,2,0,2,0,,,,,,,,,,,,,,,,,,,,,,,,,,,,,,,,,,,,,,,,,,,,,010,001,2022_Jul_06_1713,2-25_cond_decay_EYE-try,2021.2.3,163.60758921084565,
right,1.0,0.75,0,2,0,2,0,3,0,3,0,0,0,0,4,,,,,,,,,1930.494199606008,None,1930.494199606008,None,1930.494199606008,None,10s,1934.2898322460096,1935.2896017769963,1935.2841596000071,None,1936.2831180560024,1941.1061504030076,1936.2831180560024,1941.1061504030076,1941.100606011998,None,1941.100606011998,None,space,0.3549814209982287,1941.100606011998,None,4.8159,1941.5909719900083,None,,,,,,,010,001,2022_Jul_06_1713,2-25_cond_decay_EYE-try,2021.2.3,163.60758921084565,
left,0.75,1.0,0,2,0,2,0,3,0,3,0,0,1,1,6,,,,,,,,,,,,,,,10s,1942.6524903440004,1943.6528531850054,1943.641370530997,None,1944.6414063760021,1948.9619181669987,1944.6414063760021,1948.9619181669987,1948.9619181669987,None,1948.9619181669987,None,space,0.39766495100047905,1948.9619181669987,None,4.3205,1949.4890350880014,None,,,,,,,010,001,2022_Jul_06_1713,2-25_cond_decay_EYE-try,2021.2.3,163.60758921084565,
right,1.0,0.75,0,2,0,2,0,3,0,3,0,0,2,2,8,,,,,,,,,,,,,,,10s,1950.5492147199984,1951.5498342670035,1951.5440844200057,None,1952.5442461130006,1961.8459029450023,1952.5442461130006,1961.8459029450023,1961.8393933430052,None,1961.8393933430052,None,space,0.3921918010018999,1961.8393933430052,None,9.2945,1962.367188593009,None,,,,,,,010,001,2022_Jul_06_1713,2-25_cond_decay_EYE-try,2021.2.3,163.60758921084565,
left,1.0,0.75,1,2,0,2,0,3,0,3,0,0,3,3,1,,,,,,,,,,,,,,,10s,1963.4270998790016,1964.4286481279996,1964.4226589559985,None,1965.422243811001,1969.731471224004,1965.422243811001,1969.731471224004,1969.731471224004,None,1969.731471224004,None,space,0.4121060710021993,1969.731471224004,None,4.3057,1970.276306305008,None,,,,,,,010,001,2022_Jul_06_1713,2-25_cond_decay_EYE-try,2021.2.3,163.60758921084565,
right,0.75,1.0,1,2,0,2,0,3,0,3,0,0,4,4,5,,,,,,,,,,,,,,,10s,1971.3310668190097,1972.3312041449972,1972.3198559840093,None,1973.3199607300048,1973.998801431997,1973.3199607300048,1973.998801431997,1973.998801431997,None,1973.998801431997,None,space,0.5767894460004754,1973.998801431997,None,0.6736,1974.712152054999,None,,,,,,,010,001,2022_Jul_06_1713,2-25_cond_decay_EYE-try,2021.2.3,163.60758921084565,
left,0.75,1.0,0,2,0,2,0,3,0,3,0,0,5,5,3,,,,,,,,,,,,,,,10s,1975.7731252020021,1976.773876339008,1976.7680142769968,None,1977.7677527320047,1980.2039839350036,1977.7677527320047,1980.2039839350036,1980.2039839350036,None,1980.2039839350036,None,space,0.4276076570095029,1980.2039839350036,None,2.4351,1980.7671619339962,None,,,,,,,010,001,2022_Jul_06_1713,2-25_cond_decay_EYE-try,2021.2.3,163.60758921084565,
right,1.0,0.75,0,2,0,2,0,3,0,3,0,0,6,6,7,,,,,,,,,,,,,,,10s,1981.8272240850056,1982.8281484420004,1982.8159341690043,None,1983.8164705600066,1992.7861535050033,1983.8164705600066,1992.7861535050033,1992.7861535050033,None,1992.7861535050033,None,space,0.3734316600020975,1992.7861535050033,None,8.9667,1993.2935133990104,None,,,,,,,010,001,2022_Jul_06_1713,2-25_cond_decay_EYE-try,2021.2.3,163.60758921084565,
left,0.75,1.0,0,2,0,2,0,3,0,3,0,0,7,7,0,,,,,,,,,,,,,,,10s,1994.3479510250036,1995.3501192539989,1995.3433698510053,None,1996.343712779999,1999.773685608001,1996.343712779999,1999.773685608001,1999.773685608001,None,1999.773685608001,None,space,0.3778992479929002,1999.773685608001,None,3.4297,2000.2880521370098,None,,,,,,,010,001,2022_Jul_06_1713,2-25_cond_decay_EYE-try,2021.2.3,163.60758921084565,
left,0.75,1.0,0,2,0,2,0,3,0,3,0,0,8,8,9,,,,,,,,,,,,,,,10s,2001.3433017970092,2002.3437757200008,2002.3378119789995,None,2003.3370152069983,2009.8265828880103,2003.3370152069983,2009.8265828880103,2009.8211223230028,None,2009.8211223230028,None,space,0.3304762930056313,2009.8211223230028,None,6.482,2010.2880009960063,None,,,,,,,010,001,2022_Jul_06_1713,2-25_cond_decay_EYE-try,2021.2.3,163.60758921084565,
right,1.0,0.75,0,2,0,2,0,3,0,3,0,0,9,9,2,,,,,,,,,,,,,,,10s,2011.3487802739983,2012.349312877006,2012.3435026060033,None,2013.3437805069989,2019.5474457630044,2013.3437805069989,2019.5474457630044,2019.5417946350062,None,2019.5417946350062,None,space,0.385790537999128,2019.5417946350062,None,6.1967,2020.0581384270045,None,,,,,,,010,001,2022_Jul_06_1713,2-25_cond_decay_EYE-try,2021.2.3,163.60758921084565,
right,1.0,0.75,0,2,0,2,0,3,0,3,0,1,0,10,7,,,,,,,,,,,,,,,10s,2021.1173421420099,2022.1193780500034,2022.1070633880008,None,2023.1066580460028,2024.9067682410096,2023.1066580460028,2024.9067682410096,2024.9067682410096,None,2024.9067682410096,None,space,0.38882997300243005,2024.9067682410096,None,1.7966,2025.432725620005,None,,,,,,,010,001,2022_Jul_06_1713,2-25_cond_decay_EYE-try,2021.2.3,163.60758921084565,
right,1.0,0.75,0,2,0,2,0,3,0,3,0,1,1,11,2,,,,,,,,,,,,,,,10s,2026.487062182001,2027.4885773490096,2027.476175143005,None,2028.4766994670063,2031.167270253005,2028.4766994670063,2031.167270253005,2031.167270253005,None,2031.167270253005,None,space,0.38433180999709293,2031.167270253005,None,2.6877,2031.687302338003,None,,,,,,,010,001,2022_Jul_06_1713,2-25_cond_decay_EYE-try,2021.2.3,163.60758921084565,
right,1.0,0.75,0,2,0,2,0,3,0,3,0,1,2,12,4,,,,,,,,,,,,,,,10s,2032.7417833060026,2033.7434814340086,2033.737529015998,None,2034.7365610359993,2041.9851596939989,2034.7365610359993,2041.9851596939989,2041.9784159370029,None,2041.9784159370029,None,space,0.33317081500717904,2041.9784159370029,None,7.2401,2042.4447558899992,None,,,,,,,010,001,2022_Jul_06_1713,2-25_cond_decay_EYE-try,2021.2.3,163.60758921084565,
left,0.75,1.0,0,2,0,2,0,3,0,3,0,1,3,13,0,,,,,,,,,,,,,,,10s,2043.4933527240064,2044.4943779410096,2044.4885166809981,None,2045.4889785720006,2050.7124611100007,2045.4889785720006,2050.7124611100007,2050.706861083003,None,2050.706861083003,None,space,0.38874125899747014,2050.706861083003,None,5.2213,2051.2321844929975,None,,,,,,,010,001,2022_Jul_06_1713,2-25_cond_decay_EYE-try,2021.2.3,163.60758921084565,
right,1.0,0.75,0,2,0,2,0,3,0,3,0,1,4,14,8,,,,,,,,,,,,,,,10s,2052.2826663629967,2053.2822512429993,2053.2759318690078,None,2054.275922615998,2059.924322970008,2054.275922615998,2059.924322970008,2059.924322970008,None,2059.924322970008,None,None,,2059.924322970008,None,5.6466,2061.050946144009,None,,,,,,,010,001,2022_Jul_06_1713,2-25_cond_decay_EYE-try,2021.2.3,163.60758921084565,
left,0.75,1.0,0,2,0,2,0,3,0,3,0,1,5,15,9,,,,,,,,,,,,,,,10s,2062.100161385999,2063.1005328269966,2063.0945808749966,None,2064.0945620270068,2073.075482248998,2064.0945620270068,2073.075482248998,2073.075482248998,None,2073.075482248998,None,space,0.34810669599391986,2073.075482248998,None,8.9792,2073.5608061079984,None,,,,,,,010,001,2022_Jul_06_1713,2-25_cond_decay_EYE-try,2021.2.3,163.60758921084565,
left,0.75,1.0,0,2,0,2,0,3,0,3,0,1,6,16,6,,,,,,,,,,,,,,,10s,2074.6138569460018,2075.614896304003,2075.6089786090015,None,2076.608637288009,2079.111447125004,2076.608637288009,2079.111447125004,2079.1045637439966,None,2079.1045637439966,None,space,0.4710449809936108,2079.1045637439966,None,2.4928,2079.706239666004,None,,,,,,,010,001,2022_Jul_06_1713,2-25_cond_decay_EYE-try,2021.2.3,163.60758921084565,
left,1.0,0.75,1,2,0,2,0,3,0,3,0,1,7,17,1,,,,,,,,,,,,,,,10s,2080.7529276300047,2081.759723084004,2081.7534574169986,None,2082.7487913170044,2084.583723377,2082.7487913170044,2084.583723377,2084.577189827003,None,2084.577189827003,None,space,0.8784180260117864,2084.577189827003,None,1.8283,2085.5846375980036,None,,,,,,,010,001,2022_Jul_06_1713,2-25_cond_decay_EYE-try,2021.2.3,163.60758921084565,
right,0.75,1.0,1,2,0,2,0,3,0,3,0,1,8,18,5,,,,,,,,,,,,,,,10s,2086.6380367899983,2087.639786396001,2087.6329921050055,None,2088.633652673001,2096.0755841810023,2088.633652673001,2096.0755841810023,2096.068737046997,None,2096.068737046997,None,space,0.45085720700444654,2096.068737046997,None,7.4327,2096.6557177580107,None,,,,,,,010,001,2022_Jul_06_1713,2-25_cond_decay_EYE-try,2021.2.3,163.60758921084565,
