attn_cue,left_ob,right_ob,congruent,runs.thisRepN,runs.thisTrialN,runs.thisN,runs.thisIndex,blocks.thisRepN,blocks.thisTrialN,blocks.thisN,blocks.thisIndex,trials.thisRepN,trials.thisTrialN,trials.thisN,trials.thisIndex,welcome.started,welcome.stopped,text_2.started,text_2.stopped,init_key_resp.keys,init_key_resp.rt,init_key_resp.started,init_key_resp.stopped,text_3.started,text_3.stopped,text_4.started,text_4.stopped,text_5.started,text_5.stopped,block_num,texter.started,texter.stopped,cross.started,cross.stopped,left_star.started,left_star.stopped,right_star.started,right_star.stopped,left_2.started,left_2.stopped,right_2.started,right_2.stopped,key_resp.keys,key_resp.started,key_resp.stopped,Rand Tim,text.started,text.stopped,key_resp.rt,end.started,end.stopped,text_6.started,text_6.stopped,text_7.started,text_7.stopped,participant,session,date,expName,psychopyVersion,frameRate,
,,,,,,,,,,,,,,,,39.24971309800003,None,39.24971309800003,None,space,3.782705296000131,39.24971309800003,None,,,,,,,,,,,,,,,,,,,,,,,,,,,,,,,,,DEC008,001,2022_Jun_29_1729,2-25_cond_decay_EYE-try,2021.2.3,165.6226477452708,
right,1.0,0.75,0,0,0,0,0,0,0,0,0,0,0,0,4,,,,,,,,,43.0558066399999,None,43.0558066399999,None,43.0558066399999,None,10s,45.86770563199934,46.86839382299968,46.86279258899958,51.38373123199926,47.86235674399995,50.39555710799959,47.86235674399995,50.39555710799959,50.38881293399936,None,50.38881293399936,None,None,50.38881293399936,None,2.5221,51.52243079599975,None,,,,,,,,DEC008,001,2022_Jun_29_1729,2-25_cond_decay_EYE-try,2021.2.3,165.6226477452708,
right,0.75,1.0,1,0,0,0,0,0,0,0,0,0,1,1,8,,,,,,,,,,,,,,,10s,52.564713209999354,53.56566826599919,53.5596894829996,None,54.559709520999604,63.01397045899921,54.559709520999604,63.01397045899921,63.01397045899921,None,63.01397045899921,None,space,63.01397045899921,None,8.4546,63.715348038999764,None,0.5623890959996061,,,,,,,DEC008,001,2022_Jun_29_1729,2-25_cond_decay_EYE-try,2021.2.3,165.6226477452708,
right,1.0,0.75,0,0,0,0,0,0,0,0,0,0,2,2,0,,,,,,,,,,,,,,,10s,64.75791057399965,65.7594407229999,65.75345690099948,None,66.75342053999975,70.29887954399965,66.75342053999975,70.29887954399965,70.29887954399965,None,70.29887954399965,None,space,70.29887954399965,None,3.5455,70.9533398499998,None,0.5254802380004548,,,,,,,DEC008,001,2022_Jun_29_1729,2-25_cond_decay_EYE-try,2021.2.3,165.6226477452708,
left,1.0,0.75,1,0,0,0,0,0,0,0,0,0,3,3,5,,,,,,,,,,,,,,,10s,72.01352973899975,73.01378497399946,73.0080666240001,None,74.00139362999926,82.42587071599974,74.00139362999926,82.42587071599974,82.42587071599974,None,82.42587071599974,None,space,82.42587071599974,None,8.4214,83.158029059,None,0.5984940180005651,,,,,,,DEC008,001,2022_Jun_29_1729,2-25_cond_decay_EYE-try,2021.2.3,165.6226477452708,
left,0.75,1.0,0,0,0,0,0,0,0,0,0,0,4,4,6,,,,,,,,,,,,,,,10s,84.20008894199964,85.2018177889995,85.19508348499949,None,86.19543979599985,87.56482185099958,86.19543979599985,87.56482185099958,87.56482185099958,None,87.56482185099958,None,space,87.56482185099958,None,1.3672,88.17577596999945,None,0.4755373529997087,,,,,,,DEC008,001,2022_Jun_29_1729,2-25_cond_decay_EYE-try,2021.2.3,165.6226477452708,
left,0.75,1.0,0,0,0,0,0,0,0,0,0,0,5,5,7,,,,,,,,,,,,,,,10s,89.22622855499958,90.22535661999973,90.22535661999973,None,91.22601990799922,96.94518606899965,91.22601990799922,96.94518606899965,96.93957740699989,None,96.93957740699989,None,space,96.93957740699989,None,5.7152,97.50895114800005,None,0.4368530199999441,,,,,,,DEC008,001,2022_Jun_29_1729,2-25_cond_decay_EYE-try,2021.2.3,165.6226477452708,
left,0.75,1.0,0,0,0,0,0,0,0,0,0,0,6,6,9,,,,,,,,,,,,,,,10s,98.5591466549995,99.5590241760001,99.5590241760001,None,100.55232048499965,107.10992154199994,100.55232048499965,107.10992154199994,107.10992154199994,None,107.10992154199994,None,space,107.10992154199994,None,6.5553,107.62568587899932,None,0.38644309300070745,,,,,,,DEC008,001,2022_Jun_29_1729,2-25_cond_decay_EYE-try,2021.2.3,165.6226477452708,
left,0.75,1.0,0,0,0,0,0,0,0,0,0,0,7,7,3,,,,,,,,,,,,,,,10s,108.67906117999974,109.67945030299961,109.67387840299943,None,110.67344290299934,111.06746211799964,110.67344290299934,111.06746211799964,111.06746211799964,None,111.06746211799964,None,space,111.06746211799964,None,0.3913,111.76999796699965,None,0.5649006789999476,,,,,,,DEC008,001,2022_Jun_29_1729,2-25_cond_decay_EYE-try,2021.2.3,165.6226477452708,
right,1.0,0.75,0,0,0,0,0,0,0,0,0,0,8,8,2,,,,,,,,,,,,,,,10s,112.82537465399946,113.8253451189994,113.819460531,None,114.81974023799921,124.327909611,114.81974023799921,124.327909611,124.327909611,None,124.327909611,None,space,124.327909611,None,9.5061,124.81811717399978,None,0.3524405640000623,,,,,,,DEC008,001,2022_Jun_29_1729,2-25_cond_decay_EYE-try,2021.2.3,165.6226477452708,
right,1.0,0.75,0,0,0,0,0,0,0,0,0,0,9,9,1,,,,,,,,,,,,,,,10s,125.87265073699928,126.87323779799954,126.86745352199978,None,127.86717459899955,135.56483543600007,127.86717459899955,135.56483543600007,135.56483543600007,None,135.56483543600007,None,space,135.56483543600007,None,7.6956,136.10348097099995,None,0.41165135099981853,,,,,,,DEC008,001,2022_Jun_29_1729,2-25_cond_decay_EYE-try,2021.2.3,165.6226477452708,
left,0.75,1.0,0,0,0,0,0,0,0,0,0,1,0,10,3,,,,,,,,,,,,,,,10s,137.16289507799956,138.16445259099964,138.15187915299975,None,139.15292349299943,148.8245311949995,139.15292349299943,148.8245311949995,148.8245311949995,None,148.8245311949995,None,None,148.8245311949995,None,9.6708,149.94619483799943,None,,,,,,,,DEC008,001,2022_Jun_29_1729,2-25_cond_decay_EYE-try,2021.2.3,165.6226477452708,
right,1.0,0.75,0,0,0,0,0,0,0,0,0,1,1,11,2,,,,,,,,,,,,,,,10s,151.00575776200003,152.00679779299935,151.99424500999976,None,152.99483364499974,156.52777243199944,152.99483364499974,156.52777243199944,156.52777243199944,None,156.52777243199944,None,space,156.52777243199944,None,3.533,157.10984117099997,None,0.4485859439992055,,,,,,,DEC008,001,2022_Jun_29_1729,2-25_cond_decay_EYE-try,2021.2.3,165.6226477452708,
left,0.75,1.0,0,0,0,0,0,0,0,0,0,1,2,12,7,,,,,,,,,,,,,,,10s,158.16326786399986,159.16388621699934,159.15811799999938,None,160.15186986799927,164.2008055139995,160.15186986799927,164.2008055139995,164.2008055139995,None,164.2008055139995,None,space,164.2008055139995,None,4.0461,164.82918226499987,None,0.4955617069999789,,,,,,,DEC008,001,2022_Jun_29_1729,2-25_cond_decay_EYE-try,2021.2.3,165.6226477452708,
left,0.75,1.0,0,0,0,0,0,0,0,0,0,1,3,13,9,,,,,,,,,,,,,,,10s,165.87241439799982,166.87365791699995,166.86763249499927,None,167.8667539149992,169.50921272599953,167.8667539149992,169.50921272599953,169.50921272599953,None,169.50921272599953,None,space,169.50921272599953,None,1.6434,170.09575296099956,None,0.4511399600005461,,,,,,,DEC008,001,2022_Jun_29_1729,2-25_cond_decay_EYE-try,2021.2.3,165.6226477452708,
left,1.0,0.75,1,0,0,0,0,0,0,0,0,1,4,14,5,,,,,,,,,,,,,,,10s,171.150272934,172.15178882599957,172.14628863899998,None,173.14587595099965,179.3396095349999,173.14587595099965,179.3396095349999,179.33286299099927,None,179.33286299099927,None,space,179.33286299099927,None,6.1845,179.84183002600003,None,0.371502060000239,,,,,,,DEC008,001,2022_Jun_29_1729,2-25_cond_decay_EYE-try,2021.2.3,165.6226477452708,
right,1.0,0.75,0,0,0,0,0,0,0,0,0,1,5,15,1,,,,,,,,,,,,,,,10s,180.9017299979996,181.90314781799952,181.89086902999952,None,182.89073232200008,183.90902694299984,182.89073232200008,183.90902694299984,183.9024812079997,None,183.9024812079997,None,space,183.9024812079997,None,1.0074,184.45402979499977,None,0.4178968229998645,,,,,,,DEC008,001,2022_Jun_29_1729,2-25_cond_decay_EYE-try,2021.2.3,165.6226477452708,
right,1.0,0.75,0,0,0,0,0,0,0,0,0,1,6,16,4,,,,,,,,,,,,,,,10s,185.50370526799998,186.50330058799955,186.4973794789994,None,187.49729205599942,194.36406936999992,187.49729205599942,194.36406936999992,194.36406936999992,None,194.36406936999992,None,space,194.36406936999992,None,6.8663,194.89756929599935,None,0.40430958299930353,,,,,,,DEC008,001,2022_Jun_29_1729,2-25_cond_decay_EYE-try,2021.2.3,165.6226477452708,
right,1.0,0.75,0,0,0,0,0,0,0,0,0,1,7,17,0,,,,,,,,,,,,,,,10s,195.94990145199972,196.95196039199982,196.93998098499924,None,197.9398713749997,200.73916360199928,197.9398713749997,200.73916360199928,200.73916360199928,None,200.73916360199928,None,space,200.73916360199928,None,2.7968,201.29754324899932,None,0.4292119409992665,,,,,,,DEC008,001,2022_Jun_29_1729,2-25_cond_decay_EYE-try,2021.2.3,165.6226477452708,
right,0.75,1.0,1,0,0,0,0,0,0,0,0,1,8,18,8,,,,,,,,,,,,,,,10s,202.35152597499928,203.35185545199965,203.3459986099997,None,204.34527027900003,209.5637509979997,204.34527027900003,209.5637509979997,209.5637509979997,None,209.5637509979997,None,space,209.5637509979997,None,5.214,210.1385744449999,None,0.43661931399947207,,,,,,,DEC008,001,2022_Jun_29_1729,2-25_cond_decay_EYE-try,2021.2.3,165.6226477452708,
left,0.75,1.0,0,0,0,0,0,0,0,0,0,1,9,19,6,,,,,,,,,,,,,,,10s,211.19273072899978,212.19424718999926,212.18191365199982,None,213.18143078899993,214.7633338099995,213.18143078899993,214.7633338099995,214.7633338099995,None,214.7633338099995,None,None,214.7633338099995,None,1.5815,215.88942694199977,None,,,,,,,,DEC008,001,2022_Jun_29_1729,2-25_cond_decay_EYE-try,2021.2.3,165.6226477452708,
,,,,0,0,0,0,0,0,0,0,,,,,,,,,,,,,,,,,,,,,,,,,,,,,,,,,,,,,,,,,,,,,DEC008,001,2022_Jun_29_1729,2-25_cond_decay_EYE-try,2021.2.3,165.6226477452708,
left,0.75,1.0,0,0,0,0,0,1,0,1,0,0,0,0,3,,,,,,,,,216.78093106399956,None,216.78093106399956,None,216.78093106399956,None,3s,224.4418683869999,225.4427714829999,225.43598993199976,None,226.43634016499982,226.5935131569995,226.43634016499982,226.5935131569995,226.5935131569995,None,226.5935131569995,None,space,226.5935131569995,None,0.1584,227.27900767999927,None,0.5508668140000736,,,,,,,DEC008,001,2022_Jun_29_1729,2-25_cond_decay_EYE-try,2021.2.3,165.6226477452708,
right,1.0,0.75,0,0,0,0,0,1,0,1,0,0,1,1,8,,,,,,,,,,,,,,,3s,228.33230202399955,229.33293373099968,229.32729147099963,None,230.32691469199926,230.76894476799953,230.32691469199926,230.76894476799953,230.76894476799953,None,230.76894476799953,None,space,230.76894476799953,None,0.4434,231.29059381999923,None,0.39141987299990433,,,,,,,DEC008,001,2022_Jun_29_1729,2-25_cond_decay_EYE-try,2021.2.3,165.6226477452708,
left,1.0,0.75,1,0,0,0,0,1,0,1,0,0,2,2,2,,,,,,,,,,,,,,,3s,232.34422255299978,233.34529976999966,233.33936452499984,None,234.33896495499994,236.50249848899966,234.33896495499994,236.50249848899966,236.50249848899966,None,236.50249848899966,None,None,236.50249848899966,None,2.1632,237.62406215699957,None,,,,,,,,DEC008,001,2022_Jun_29_1729,2-25_cond_decay_EYE-try,2021.2.3,165.6226477452708,
left,0.75,1.0,0,0,0,0,0,1,0,1,0,0,3,3,9,,,,,,,,,,,,,,,3s,238.6782667869993,239.6787047529997,239.6726818979996,None,240.6724511349994,242.58170133299973,240.6724511349994,242.58170133299973,242.58170133299973,None,242.58170133299973,None,space,242.58170133299973,None,1.9095,243.20477784299965,None,0.48267933599981916,,,,,,,DEC008,001,2022_Jun_29_1729,2-25_cond_decay_EYE-try,2021.2.3,165.6226477452708,
right,1.0,0.75,0,0,0,0,0,1,0,1,0,0,4,4,0,,,,,,,,,,,,,,,3s,244.2534738329996,245.2542621069997,245.2419895639996,None,246.24189072299941,248.44631721299993,246.24189072299941,248.44631721299993,248.44065150999995,None,248.44065150999995,None,space,248.44065150999995,None,2.1975,249.0174388129999,None,0.4477215469996736,,,,,,,DEC008,001,2022_Jun_29_1729,2-25_cond_decay_EYE-try,2021.2.3,165.6226477452708,
right,0.75,1.0,1,0,0,0,0,1,0,1,0,0,5,5,7,,,,,,,,,,,,,,,3s,250.07199291799952,251.07204584800002,251.07204584800002,None,252.0658580499994,254.1330673069997,252.0658580499994,254.1330673069997,254.1330673069997,None,254.1330673069997,None,space,254.1330673069997,None,2.0625,254.66548304599928,None,0.40331420399979834,,,,,,,DEC008,001,2022_Jun_29_1729,2-25_cond_decay_EYE-try,2021.2.3,165.6226477452708,
right,1.0,0.75,0,0,0,0,0,1,0,1,0,0,6,6,1,,,,,,,,,,,,,,,3s,255.71357412899943,256.71455269999933,256.7089734789997,None,257.70870618699973,258.3149138559993,257.70870618699973,258.3149138559993,258.3149138559993,None,258.3149138559993,None,space,258.3149138559993,None,0.6017,258.8964106839994,None,0.4534360439993179,,,,,,,DEC008,001,2022_Jun_29_1729,2-25_cond_decay_EYE-try,2021.2.3,165.6226477452708,
right,1.0,0.75,0,0,0,0,0,1,0,1,0,0,7,7,4,,,,,,,,,,,,,,,3s,259.94975177800006,260.9507698159996,260.94486250499995,None,261.9448831919999,264.5621511729996,261.9448831919999,264.5621511729996,264.5553011619995,None,264.5553011619995,None,space,264.5553011619995,None,2.609,265.1203420940001,None,0.43708247899940034,,,,,,,DEC008,001,2022_Jun_29_1729,2-25_cond_decay_EYE-try,2021.2.3,165.6226477452708,
left,0.75,1.0,0,0,0,0,0,1,0,1,0,0,8,8,6,,,,,,,,,,,,,,,3s,266.1800368479999,267.181018536,267.1685712139997,None,268.1690473209992,268.65306039699954,268.1690473209992,268.65306039699954,268.64625049299957,None,268.64625049299957,None,space,268.64625049299957,None,0.4781,269.32082284399985,None,0.5461419560006107,,,,,,,DEC008,001,2022_Jun_29_1729,2-25_cond_decay_EYE-try,2021.2.3,165.6226477452708,
left,0.75,1.0,0,0,0,0,0,1,0,1,0,0,9,9,5,,,,,,,,,,,,,,,3s,270.3733719940001,271.374675348,271.3634037209995,None,272.36281715599944,274.89586688500003,272.36281715599944,274.89586688500003,274.89586688500003,None,274.89586688500003,None,space,274.89586688500003,None,2.5301,275.3687784349995,None,0.344523787000071,,,,,,,DEC008,001,2022_Jun_29_1729,2-25_cond_decay_EYE-try,2021.2.3,165.6226477452708,
right,1.0,0.75,0,0,0,0,0,1,0,1,0,1,0,10,1,,,,,,,,,,,,,,,3s,276.42238702099985,277.4231983769996,277.41093039599946,None,278.41091208299986,279.41145295799924,278.41091208299986,279.41145295799924,279.41145295799924,None,279.41145295799924,None,space,279.41145295799924,None,0.9994,280.13856414099973,None,0.596930326999427,,,,,,,DEC008,001,2022_Jun_29_1729,2-25_cond_decay_EYE-try,2021.2.3,165.6226477452708,
right,1.0,0.75,0,0,0,0,0,1,0,1,0,1,1,11,0,,,,,,,,,,,,,,,3s,281.1915564000001,282.19287852699927,282.1869290279992,None,283.1867425679993,284.89000518600005,283.1867425679993,284.89000518600005,284.883136894,None,284.883136894,None,space,284.883136894,None,1.6926,285.3434411199996,None,0.32524376699984714,,,,,,,DEC008,001,2022_Jun_29_1729,2-25_cond_decay_EYE-try,2021.2.3,165.6226477452708,
left,0.75,1.0,0,0,0,0,0,1,0,1,0,1,2,12,3,,,,,,,,,,,,,,,3s,286.3980763239997,287.3988535059998,287.38713643399933,None,288.38655996599937,288.8475897749995,288.38655996599937,288.8475897749995,288.8475897749995,None,288.8475897749995,None,None,288.8475897749995,None,0.4616,289.9730005759993,None,,,,,,,,DEC008,001,2022_Jun_29_1729,2-25_cond_decay_EYE-try,2021.2.3,165.6226477452708,
left,0.75,1.0,0,0,0,0,0,1,0,1,0,1,3,13,9,,,,,,,,,,,,,,,3s,291.0154473189996,292.01710078999986,292.01131916599934,None,293.0110989249997,295.0471424509997,293.0110989249997,295.0471424509997,295.0471424509997,None,295.0471424509997,None,space,295.0471424509997,None,2.0354,295.56781865799985,None,0.3772360570001183,,,,,,,DEC008,001,2022_Jun_29_1729,2-25_cond_decay_EYE-try,2021.2.3,165.6226477452708,
right,1.0,0.75,0,0,0,0,0,1,0,1,0,1,4,14,4,,,,,,,,,,,,,,,3s,296.6221143749999,297.6232473659993,297.6109177449998,None,298.61153332199956,300.75629692799976,298.61153332199956,300.75629692799976,300.75629692799976,None,300.75629692799976,None,space,300.75629692799976,None,2.1408,301.265261691,None,0.3800987389995498,,,,,,,DEC008,001,2022_Jun_29_1729,2-25_cond_decay_EYE-try,2021.2.3,165.6226477452708,
right,0.75,1.0,1,0,0,0,0,1,0,1,0,1,5,15,7,,,,,,,,,,,,,,,3s,302.3131719949997,303.3134827219992,303.3074843249997,None,304.30754791899926,306.56240733100003,304.30754791899926,306.56240733100003,306.56240733100003,None,306.56240733100003,None,space,306.56240733100003,None,2.2554,307.13711118799984,None,0.4379978940005458,,,,,,,DEC008,001,2022_Jun_29_1729,2-25_cond_decay_EYE-try,2021.2.3,165.6226477452708,
left,1.0,0.75,1,0,0,0,0,1,0,1,0,1,6,16,2,,,,,,,,,,,,,,,3s,308.19726725799956,309.1988657689999,309.1862215679994,None,310.186826614,310.9486075750001,310.186826614,310.9486075750001,310.94301191999966,None,310.94301191999966,None,space,310.94301191999966,None,0.7529,311.76690014699943,None,0.6893892959997174,,,,,,,DEC008,001,2022_Jun_29_1729,2-25_cond_decay_EYE-try,2021.2.3,165.6226477452708,
left,0.75,1.0,0,0,0,0,0,1,0,1,0,1,7,17,6,,,,,,,,,,,,,,,3s,312.817278988,313.81700322899997,313.811311767,None,314.81046264199995,316.26529025199943,314.81046264199995,316.26529025199943,316.26529025199943,None,316.26529025199943,None,None,316.26529025199943,None,1.4533,317.39130502199987,None,,,,,,,,DEC008,001,2022_Jun_29_1729,2-25_cond_decay_EYE-try,2021.2.3,165.6226477452708,
left,0.75,1.0,0,0,0,0,0,1,0,1,0,1,8,18,5,,,,,,,,,,,,,,,3s,318.43520215399985,319.4348032359994,319.4291984339998,None,320.4288224209995,320.6833233519992,320.4288224209995,320.6833233519992,320.6833233519992,None,320.6833233519992,None,space,320.6833233519992,None,0.2542,321.31232361,None,0.485069907000252,,,,,,,DEC008,001,2022_Jun_29_1729,2-25_cond_decay_EYE-try,2021.2.3,165.6226477452708,
right,1.0,0.75,0,0,0,0,0,1,0,1,0,1,9,19,8,,,,,,,,,,,,,,,3s,322.366840744,323.36786826799926,323.3556953499992,None,324.35604363899984,325.3072912379994,324.35604363899984,325.3072912379994,325.3072912379994,None,325.3072912379994,None,space,325.3072912379994,None,0.9524,325.83415068199974,None,0.38909611700000823,,,,,,,DEC008,001,2022_Jun_29_1729,2-25_cond_decay_EYE-try,2021.2.3,165.6226477452708,
,,,,0,0,0,0,1,0,1,0,,,,,,,,,,,,,,,,,,,,,,,,,,,,,,,,,,,,,,,,,,,,,DEC008,001,2022_Jun_29_1729,2-25_cond_decay_EYE-try,2021.2.3,165.6226477452708,
right,1.0,0.75,0,0,0,0,0,2,0,2,0,0,0,0,4,,,,,,,,,326.73044340899924,None,326.73044340899924,None,326.73044340899924,None,5s,329.89613948199985,330.8956472589998,330.88904049899975,None,331.8896017499992,335.96188393899956,331.8896017499992,335.96188393899956,335.96188393899956,None,335.96188393899956,None,space,335.96188393899956,None,4.0702,336.4396258399993,None,0.342502876999788,,,,,,,DEC008,001,2022_Jun_29_1729,2-25_cond_decay_EYE-try,2021.2.3,165.6226477452708,
left,1.0,0.75,1,0,0,0,0,2,0,2,0,0,1,1,1,,,,,,,,,,,,,,,5s,337.49378151199926,338.4956772709993,338.48313791999954,None,339.4833071029998,343.725719733,339.4833071029998,343.725719733,343.725719733,None,343.725719733,None,space,343.725719733,None,4.2394,344.21054575499966,None,0.3546682710002642,,,,,,,DEC008,001,2022_Jun_29_1729,2-25_cond_decay_EYE-try,2021.2.3,165.6226477452708,
right,1.0,0.75,0,0,0,0,0,2,0,2,0,0,2,2,3,,,,,,,,,,,,,,,5s,345.2697738979996,346.27061724399937,346.258438543,None,347.2585208569999,351.1194098169999,347.2585208569999,351.1194098169999,351.1194098169999,None,351.1194098169999,None,space,351.1194098169999,None,3.8581,351.71258054899954,None,0.4650531819997923,,,,,,,DEC008,001,2022_Jun_29_1729,2-25_cond_decay_EYE-try,2021.2.3,165.6226477452708,
right,1.0,0.75,0,0,0,0,0,2,0,2,0,0,3,3,8,,,,,,,,,,,,,,,5s,352.7676400849996,353.767813509,353.7620352739996,None,354.76161049799975,358.40418866799973,354.76161049799975,358.40418866799973,358.40418866799973,None,358.40418866799973,None,space,358.40418866799973,None,3.638,358.9367682259999,None,0.3962066659996708,,,,,,,DEC008,001,2022_Jun_29_1729,2-25_cond_decay_EYE-try,2021.2.3,165.6226477452708,
right,1.0,0.75,0,0,0,0,0,2,0,2,0,0,4,4,5,,,,,,,,,,,,,,,5s,359.99050058800003,360.99206656299975,360.98604715500005,None,361.98619758399946,364.5612736029998,361.98619758399946,364.5612736029998,364.55486179699983,None,364.55486179699983,None,space,364.55486179699983,None,2.5669,365.03905434899934,None,0.3495388310002454,,,,,,,DEC008,001,2022_Jun_29_1729,2-25_cond_decay_EYE-try,2021.2.3,165.6226477452708,
right,0.75,1.0,1,0,0,0,0,2,0,2,0,0,5,5,0,,,,,,,,,,,,,,,5s,366.08956915199997,367.0890891749996,367.0831749959998,None,368.0834016209992,370.97396403199946,368.0834016209992,370.97396403199946,370.97396403199946,None,370.97396403199946,None,space,370.97396403199946,None,2.8885,371.57853749199967,None,0.4665121990001353,,,,,,,DEC008,001,2022_Jun_29_1729,2-25_cond_decay_EYE-try,2021.2.3,165.6226477452708,
left,0.75,1.0,0,0,0,0,0,2,0,2,0,0,6,6,9,,,,,,,,,,,,,,,5s,372.6387470109994,373.639918242,373.6280889489999,None,374.6281716079993,379.48254476199963,374.6281716079993,379.48254476199963,379.48254476199963,None,379.48254476199963,None,space,379.48254476199963,None,4.8532,379.9841538339997,None,0.3658304009995845,,,,,,,DEC008,001,2022_Jun_29_1729,2-25_cond_decay_EYE-try,2021.2.3,165.6226477452708,
left,0.75,1.0,0,0,0,0,0,2,0,2,0,0,7,7,6,,,,,,,,,,,,,,,5s,381.0333646559993,382.03471196099963,382.027833825,None,383.0278407609994,387.78558672599956,383.0278407609994,387.78558672599956,387.77879798199956,None,387.77879798199956,None,space,387.77879798199956,None,4.7469,388.306071512,None,0.3896096739999848,,,,,,,DEC008,001,2022_Jun_29_1729,2-25_cond_decay_EYE-try,2021.2.3,165.6226477452708,
left,0.75,1.0,0,0,0,0,0,2,0,2,0,0,8,8,2,,,,,,,,,,,,,,,5s,389.36052252599984,390.36090396599957,390.35514974499984,None,391.35490416299945,395.5128742500001,391.35490416299945,395.5128742500001,395.5128742500001,None,395.5128742500001,None,space,395.5128742500001,None,4.1593,396.03986813199936,None,0.3995054140004868,,,,,,,DEC008,001,2022_Jun_29_1729,2-25_cond_decay_EYE-try,2021.2.3,165.6226477452708,
left,0.75,1.0,0,0,0,0,0,2,0,2,0,0,9,9,7,,,,,,,,,,,,,,,5s,397.09356619699975,398.0947597249997,398.0831897799999,None,399.0821673399996,400.50653028799934,399.0821673399996,400.50653028799934,400.50653028799934,None,400.50653028799934,None,space,400.50653028799934,None,1.4249,401.0934082599997,None,0.4538751049994971,,,,,,,DEC008,001,2022_Jun_29_1729,2-25_cond_decay_EYE-try,2021.2.3,165.6226477452708,
left,0.75,1.0,0,0,0,0,0,2,0,2,0,1,0,10,9,,,,,,,,,,,,,,,5s,402.141462175,403.1430431969993,403.1306440159997,None,404.13072662099967,409.0888823329997,404.13072662099967,409.0888823329997,409.0888823329997,None,409.0888823329997,None,space,409.0888823329997,None,4.9536,409.5598107699998,None,0.33550779500001227,,,,,,,DEC008,001,2022_Jun_29_1729,2-25_cond_decay_EYE-try,2021.2.3,165.6226477452708,
right,1.0,0.75,0,0,0,0,0,2,0,2,0,1,1,11,3,,,,,,,,,,,,,,,5s,410.6206854339998,411.6217448939997,411.6151997709994,None,412.61557702199934,416.4519613980001,412.61557702199934,416.4519613980001,416.4519613980001,None,416.4519613980001,None,space,416.4519613980001,None,3.8369,417.0027385650001,None,0.41243455200037715,,,,,,,DEC008,001,2022_Jun_29_1729,2-25_cond_decay_EYE-try,2021.2.3,165.6226477452708,
left,1.0,0.75,1,0,0,0,0,2,0,2,0,1,2,12,1,,,,,,,,,,,,,,,5s,418.064044019,419.06387847899987,419.05803244099934,None,420.05823590899945,425.04018121899935,420.05823590899945,425.04018121899935,425.04018121899935,None,425.04018121899935,None,space,425.04018121899935,None,4.9806,425.56079058199975,None,0.39222231399980956,,,,,,,DEC008,001,2022_Jun_29_1729,2-25_cond_decay_EYE-try,2021.2.3,165.6226477452708,
left,0.75,1.0,0,0,0,0,0,2,0,2,0,1,3,13,7,,,,,,,,,,,,,,,5s,426.6140548779995,427.61567870199997,427.60994660399956,None,428.6089883229997,431.72907628099983,428.6089883229997,431.72907628099983,431.72330299499936,None,431.72330299499936,None,space,431.72330299499936,None,3.1128,432.2818032719997,None,0.42909233099999256,,,,,,,DEC008,001,2022_Jun_29_1729,2-25_cond_decay_EYE-try,2021.2.3,165.6226477452708,
left,0.75,1.0,0,0,0,0,0,2,0,2,0,1,4,14,2,,,,,,,,,,,,,,,5s,433.3349902780001,434.33685713699924,434.33103411499997,None,435.3302688670001,438.43959268599974,435.3302688670001,438.43959268599974,438.43404538699997,None,438.43404538699997,None,space,438.43404538699997,None,3.1057,438.9550685079994,None,0.39034281900057977,,,,,,,DEC008,001,2022_Jun_29_1729,2-25_cond_decay_EYE-try,2021.2.3,165.6226477452708,
right,1.0,0.75,0,0,0,0,0,2,0,2,0,1,5,15,8,,,,,,,,,,,,,,,5s,440.0139499930001,441.01518209499955,441.00308382000003,None,442.00289654399967,444.25795591399947,442.00289654399967,444.25795591399947,444.25795591399947,None,444.25795591399947,None,None,444.25795591399947,None,2.2536,445.38369792399953,None,,,,,,,,DEC008,001,2022_Jun_29_1729,2-25_cond_decay_EYE-try,2021.2.3,165.6226477452708,
right,1.0,0.75,0,0,0,0,0,2,0,2,0,1,6,16,5,,,,,,,,,,,,,,,5s,446.43247335199976,447.43350525200003,447.4276311069998,None,448.4271034149997,452.2520516959994,448.4271034149997,452.2520516959994,452.2520516959994,None,452.2520516959994,None,space,452.2520516959994,None,3.8242,452.74094008499924,None,0.356394504000491,,,,,,,DEC008,001,2022_Jun_29_1729,2-25_cond_decay_EYE-try,2021.2.3,165.6226477452708,
right,0.75,1.0,1,0,0,0,0,2,0,2,0,1,7,17,0,,,,,,,,,,,,,,,5s,453.78933585899995,454.7912975479994,454.78530290599974,None,455.78493199199966,456.8629604739999,455.78493199199966,456.8629604739999,456.8562083829993,None,456.8562083829993,None,space,456.8562083829993,None,1.0712,457.4399483489997,None,0.45622604099935415,,,,,,,DEC008,001,2022_Jun_29_1729,2-25_cond_decay_EYE-try,2021.2.3,165.6226477452708,
left,0.75,1.0,0,0,0,0,0,2,0,2,0,1,8,18,6,,,,,,,,,,,,,,,5s,458.49888387600004,459.49976606199925,459.4883101529995,None,460.4883493669995,462.24527128499994,460.4883493669995,462.24527128499994,462.24527128499994,None,462.24527128499994,None,space,462.24527128499994,None,1.7576,462.7592713039994,None,0.37918515500041394,,,,,,,DEC008,001,2022_Jun_29_1729,2-25_cond_decay_EYE-try,2021.2.3,165.6226477452708,
right,1.0,0.75,0,0,0,0,0,2,0,2,0,1,9,19,4,,,,,,,,,,,,,,,5s,463.8199932769994,464.8208741109993,464.808643413,None,465.8090237009992,469.8314844589995,465.8090237009992,469.8314844589995,469.8258426129996,None,469.8258426129996,None,space,469.8258426129996,None,4.0156,470.2803262079997,None,0.3185716770003637,,,,,,,DEC008,001,2022_Jun_29_1729,2-25_cond_decay_EYE-try,2021.2.3,165.6226477452708,
,,,,0,0,0,0,2,0,2,0,,,,,,,,,,,,,,,,,,,,,,,,,,,,,,,,,,,,,,,,,,,,,DEC008,001,2022_Jun_29_1729,2-25_cond_decay_EYE-try,2021.2.3,165.6226477452708,
right,1.0,0.75,0,0,0,0,0,3,0,3,0,0,0,0,6,,,,,,,,,471.17266015099995,None,471.17266015099995,None,471.17266015099995,None,1s,474.35960931499994,475.3603260719992,475.3545063929996,None,476.3547671589995,476.5847596879994,476.3547671589995,476.5847596879994,476.5847596879994,None,476.5847596879994,None,space,476.5847596879994,None,0.2313,477.0560245409997,None,0.3356488540002829,,,,,,,DEC008,001,2022_Jun_29_1729,2-25_cond_decay_EYE-try,2021.2.3,165.6226477452708,
right,1.0,0.75,0,0,0,0,0,3,0,3,0,0,1,1,4,,,,,,,,,,,,,,,1s,478.10627609399944,479.1058432099999,479.1058432099999,None,480.100248662,480.6149351439999,480.100248662,480.6149351439999,480.62059906800005,None,480.62059906800005,None,space,480.62059906800005,None,0.5156,481.0320108349997,None,0.2758122490004098,,,,,,,DEC008,001,2022_Jun_29_1729,2-25_cond_decay_EYE-try,2021.2.3,165.6226477452708,
left,0.75,1.0,0,0,0,0,0,3,0,3,0,0,2,2,7,,,,,,,,,,,,,,,1s,482.09231924599953,483.09325899299984,483.0818203680001,None,484.0816106459997,484.37754913199933,484.0816106459997,484.37754913199933,484.37075239599926,None,484.37075239599926,None,space,484.37075239599926,None,0.2879,484.886823113,None,0.3816522510005598,,,,,,,DEC008,001,2022_Jun_29_1729,2-25_cond_decay_EYE-try,2021.2.3,165.6226477452708,
left,1.0,0.75,1,0,0,0,0,3,0,3,0,0,3,3,9,,,,,,,,,,,,,,,1s,485.929184179,486.93026364699926,486.9235072369993,None,487.92359990799923,488.3905767899996,487.92359990799923,488.3905767899996,488.3905767899996,None,488.3905767899996,None,space,488.3905767899996,None,0.4678,488.7845190179996,None,0.2658230979996006,,,,,,,DEC008,001,2022_Jun_29_1729,2-25_cond_decay_EYE-try,2021.2.3,165.6226477452708,
right,1.0,0.75,0,0,0,0,0,3,0,3,0,0,4,4,8,,,,,,,,,,,,,,,1s,489.8395629099996,490.8386467519995,490.8327829539994,None,491.83253884499936,492.6024647479999,491.83253884499936,492.6024647479999,492.6024647479999,None,492.6024647479999,None,space,492.6024647479999,None,0.7675,493.03299731900006,None,0.3020280430000639,,,,,,,DEC008,001,2022_Jun_29_1729,2-25_cond_decay_EYE-try,2021.2.3,165.6226477452708,
right,1.0,0.75,0,0,0,0,0,3,0,3,0,0,5,5,3,,,,,,,,,,,,,,,1s,494.0795966759997,495.08133254899985,495.07543378399987,None,496.075430115,496.4932626379996,496.075430115,496.4932626379996,496.4932626379996,None,496.4932626379996,None,space,496.4932626379996,None,0.4176,496.9766964249993,None,0.3471493200004261,,,,,,,DEC008,001,2022_Jun_29_1729,2-25_cond_decay_EYE-try,2021.2.3,165.6226477452708,
right,0.75,1.0,1,0,0,0,0,3,0,3,0,0,6,6,2,,,,,,,,,,,,,,,1s,498.03180669999983,499.0328177319998,499.02685597599975,None,500.02649765799924,500.3712742709995,500.02649765799924,500.3712742709995,500.3645190299994,None,500.3645190299994,None,space,500.3645190299994,None,0.3353,500.86173562299973,None,0.3639631799997005,,,,,,,DEC008,001,2022_Jun_29_1729,2-25_cond_decay_EYE-try,2021.2.3,165.6226477452708,
left,0.75,1.0,0,0,0,0,0,3,0,3,0,0,7,7,0,,,,,,,,,,,,,,,1s,501.91632522799955,502.91782222599977,502.91181463999965,None,503.90513940599976,504.0996171329998,503.90513940599976,504.0996171329998,504.0996171329998,None,504.0996171329998,None,space,504.0996171329998,None,0.192,504.55227974399986,None,0.31679702300061763,,,,,,,DEC008,001,2022_Jun_29_1729,2-25_cond_decay_EYE-try,2021.2.3,165.6226477452708,
right,1.0,0.75,0,0,0,0,0,3,0,3,0,0,8,8,5,,,,,,,,,,,,,,,1s,505.60833899999943,506.6081455759995,506.60234624199984,None,507.602326143,508.0446915929997,507.602326143,508.0446915929997,508.0446915929997,None,508.0446915929997,None,space,508.0446915929997,None,0.4413,508.48550394799986,None,0.30771563799953583,,,,,,,DEC008,001,2022_Jun_29_1729,2-25_cond_decay_EYE-try,2021.2.3,165.6226477452708,
left,0.75,1.0,0,0,0,0,0,3,0,3,0,0,9,9,1,,,,,,,,,,,,,,,1s,509.54089684099927,510.5419230029993,510.5360791389994,None,511.535810587,511.705286202,511.535810587,511.705286202,511.69867357599924,None,511.69867357599924,None,space,511.69867357599924,None,0.1595,512.2494433359998,None,0.413739736000025,,,,,,,DEC008,001,2022_Jun_29_1729,2-25_cond_decay_EYE-try,2021.2.3,165.6226477452708,
left,0.75,1.0,0,0,0,0,0,3,0,3,0,1,0,10,0,,,,,,,,,,,,,,,1s,513.3040100539993,514.305124208,514.2937381169995,None,515.2928178069997,515.9900080979996,515.2928178069997,515.9900080979996,515.9900080979996,None,515.9900080979996,None,space,515.9900080979996,None,0.6946,516.432052137,None,0.31442439399961586,,,,,,,DEC008,001,2022_Jun_29_1729,2-25_cond_decay_EYE-try,2021.2.3,165.6226477452708,
left,0.75,1.0,0,0,0,0,0,3,0,3,0,1,1,11,6,,,,,,,,,,,,,,,1s,517.4860970199998,518.486838842,518.475282118,None,519.4755189409998,520.2877859199998,519.4755189409998,520.2877859199998,520.2877859199998,None,520.2877859199998,None,space,520.2877859199998,None,0.8087,520.7055363059999,None,0.2886181140002009,,,,,,,DEC008,001,2022_Jun_29_1729,2-25_cond_decay_EYE-try,2021.2.3,165.6226477452708,
right,1.0,0.75,0,0,0,0,0,3,0,3,0,1,2,12,8,,,,,,,,,,,,,,,1s,521.7644246519994,522.7662151459999,522.7540144629993,None,523.753906512,524.2368993699993,523.753906512,524.2368993699993,524.2311364560001,None,524.2311364560001,None,space,524.2311364560001,None,0.4739,524.71652963,None,0.3532751160000771,,,,,,,DEC008,001,2022_Jun_29_1729,2-25_cond_decay_EYE-try,2021.2.3,165.6226477452708,
right,1.0,0.75,0,0,0,0,0,3,0,3,0,1,3,13,3,,,,,,,,,,,,,,,1s,525.7585369169992,526.7597245119996,526.7538723909993,None,527.754171865,528.262766541,527.754171865,528.262766541,528.2572651519995,None,528.2572651519995,None,space,528.2572651519995,None,0.504,528.6974716299992,None,0.3031605669993951,,,,,,,DEC008,001,2022_Jun_29_1729,2-25_cond_decay_EYE-try,2021.2.3,165.6226477452708,
left,0.75,1.0,0,0,0,0,0,3,0,3,0,1,4,14,7,,,,,,,,,,,,,,,1s,529.7584640559999,530.7599964709998,530.7475616920001,None,531.7477431239995,532.601872149,531.7477431239995,532.601872149,532.601872149,None,532.601872149,None,space,532.601872149,None,0.8515,533.0489585729993,None,0.31057768699974986,,,,,,,DEC008,001,2022_Jun_29_1729,2-25_cond_decay_EYE-try,2021.2.3,165.6226477452708,
right,1.0,0.75,0,0,0,0,0,3,0,3,0,1,5,15,4,,,,,,,,,,,,,,,1s,534.1040526930001,535.1050339679996,535.0931186849994,None,536.0934982559993,536.2564040069992,536.0934982559993,536.2564040069992,536.2564040069992,None,536.2564040069992,None,space,536.2564040069992,None,0.162,536.8005133269999,None,0.40802008699938597,,,,,,,DEC008,001,2022_Jun_29_1729,2-25_cond_decay_EYE-try,2021.2.3,165.6226477452708,
right,1.0,0.75,0,0,0,0,0,3,0,3,0,1,6,16,5,,,,,,,,,,,,,,,1s,537.8553195750001,538.8567540289996,538.8507635569995,None,539.8501259320001,540.262401512,539.8501259320001,540.262401512,540.262401512,None,540.262401512,None,space,540.262401512,None,0.4123,540.6974387439996,None,0.29801434300043184,,,,,,,DEC008,001,2022_Jun_29_1729,2-25_cond_decay_EYE-try,2021.2.3,165.6226477452708,
right,0.75,1.0,1,0,0,0,0,3,0,3,0,1,7,17,2,,,,,,,,,,,,,,,1s,541.7479444729997,542.7476636879992,542.7476636879992,None,543.7476803439995,544.3592806399993,543.7476803439995,544.3592806399993,544.3592806399993,None,544.3592806399993,None,space,544.3592806399993,None,0.6129,544.8020212409992,None,0.3131271829997786,,,,,,,DEC008,001,2022_Jun_29_1729,2-25_cond_decay_EYE-try,2021.2.3,165.6226477452708,
left,1.0,0.75,1,0,0,0,0,3,0,3,0,1,8,18,9,,,,,,,,,,,,,,,1s,545.8610004869997,546.8624438859997,546.8509531339996,None,547.8504060859996,548.5578865289999,547.8504060859996,548.5578865289999,548.5521897809995,None,548.5521897809995,None,space,548.5521897809995,None,0.6996,549.0244543409999,None,0.3362316519996966,,,,,,,DEC008,001,2022_Jun_29_1729,2-25_cond_decay_EYE-try,2021.2.3,165.6226477452708,
left,0.75,1.0,0,0,0,0,0,3,0,3,0,1,9,19,1,,,,,,,,,,,,,,,1s,550.07444252,551.0742004670001,551.0686315949997,None,552.0683363029993,552.9296729749994,552.0683363029993,552.9296729749994,552.9296729749994,None,552.9296729749994,None,space,552.9296729749994,None,0.8566,553.4256995149999,None,0.3667430819996298,,,,,,,DEC008,001,2022_Jun_29_1729,2-25_cond_decay_EYE-try,2021.2.3,165.6226477452708,
,,,,0,0,0,0,3,0,3,0,,,,,,,,,,,,,,,,,,,,,,,,,,,,,,,,,,,,,,,,,,,,,DEC008,001,2022_Jun_29_1729,2-25_cond_decay_EYE-try,2021.2.3,165.6226477452708,
,,,,0,0,0,0,,,,,,,,,,,,,,,,,,,,,,,,,,,,,,,,,,,,,,,,,,,554.3216406019992,None,554.3216406019992,None,554.3216406019992,None,DEC008,001,2022_Jun_29_1729,2-25_cond_decay_EYE-try,2021.2.3,165.6226477452708,
right,1.0,0.75,0,1,0,1,0,0,0,0,0,0,0,0,6,,,,,,,,,559.3167722859998,None,559.3167722859998,None,559.3167722859998,None,1s,574.2488656119995,575.2497736219993,575.2438630749994,None,576.2435470339997,576.8373330049999,576.2435470339997,576.8373330049999,576.8304772029996,None,576.8304772029996,None,space,576.8304772029996,None,0.5881,577.3637053769999,None,0.4019432169998254,,,,,,,DEC008,001,2022_Jun_29_1729,2-25_cond_decay_EYE-try,2021.2.3,165.6226477452708,
left,0.75,1.0,0,1,0,1,0,0,0,0,0,0,1,1,3,,,,,,,,,,,,,,,1s,578.4190843910001,579.4202424219993,579.4143060529996,None,580.4135248879993,580.6362421939994,580.4135248879993,580.6362421939994,580.6303888909997,None,580.6303888909997,None,space,580.6303888909997,None,0.2168,581.2066872779997,None,0.44203525000011723,,,,,,,DEC008,001,2022_Jun_29_1729,2-25_cond_decay_EYE-try,2021.2.3,165.6226477452708,
right,1.0,0.75,0,1,0,1,0,0,0,0,0,0,2,2,7,,,,,,,,,,,,,,,1s,582.2604655139994,583.2620499159993,583.2496433759998,None,584.2494305219998,584.8683801569996,584.2494305219998,584.8683801569996,584.8748232689995,None,584.8748232689995,None,space,584.8748232689995,None,0.6191,585.3218877999998,None,0.30959461299971736,,,,,,,DEC008,001,2022_Jun_29_1729,2-25_cond_decay_EYE-try,2021.2.3,165.6226477452708,
right,0.75,1.0,1,1,0,1,0,0,0,0,0,0,3,3,2,,,,,,,,,,,,,,,1s,586.3755797519998,587.3775501559994,587.365386165,None,588.3645636629999,589.3040174379994,588.3645636629999,589.3040174379994,589.3040174379994,None,589.3040174379994,None,space,589.3040174379994,None,0.9398,589.7762985169993,None,0.34440145900043717,,,,,,,DEC008,001,2022_Jun_29_1729,2-25_cond_decay_EYE-try,2021.2.3,165.6226477452708,
left,0.75,1.0,0,1,0,1,0,0,0,0,0,0,4,4,0,,,,,,,,,,,,,,,1s,590.8361645799996,591.8374481419996,591.8251922049994,None,592.8253092790001,593.4433795309997,592.8253092790001,593.4433795309997,593.4368119909996,None,593.4368119909996,None,space,593.4368119909996,None,0.6078,593.9516273619993,None,0.37961982599972544,,,,,,,DEC008,001,2022_Jun_29_1729,2-25_cond_decay_EYE-try,2021.2.3,165.6226477452708,
right,1.0,0.75,0,1,0,1,0,0,0,0,0,0,5,5,4,,,,,,,,,,,,,,,1s,595.0121920149995,596.0137162579995,596.0016597289996,None,597.0015241829997,597.4256896839997,597.0015241829997,597.4256896839997,597.4256896839997,None,597.4256896839997,None,space,597.4256896839997,None,0.4249,597.8974459319998,None,0.33473580299960304,,,,,,,DEC008,001,2022_Jun_29_1729,2-25_cond_decay_EYE-try,2021.2.3,165.6226477452708,
right,1.0,0.75,0,1,0,1,0,0,0,0,0,0,6,6,5,,,,,,,,,,,,,,,1s,598.9467584639997,599.9472660470001,599.941231025,None,600.940272029,601.1949768159993,600.940272029,601.1949768159993,601.1949768159993,None,601.1949768159993,None,space,601.1949768159993,None,0.2538,601.680101557,None,0.3574358519999805,,,,,,,DEC008,001,2022_Jun_29_1729,2-25_cond_decay_EYE-try,2021.2.3,165.6226477452708,
left,0.75,1.0,0,1,0,1,0,0,0,0,0,0,7,7,8,,,,,,,,,,,,,,,1s,602.7338634989992,603.7345984269996,603.7220206109996,None,604.7224294609996,605.7044793699997,604.7224294609996,605.7044793699997,605.7044793699997,None,605.7044793699997,None,space,605.7044793699997,None,0.981,606.1812874999996,None,0.3439294189993234,,,,,,,DEC008,001,2022_Jun_29_1729,2-25_cond_decay_EYE-try,2021.2.3,165.6226477452708,
left,1.0,0.75,1,1,0,1,0,0,0,0,0,0,8,8,9,,,,,,,,,,,,,,,1s,607.230805055,608.2311269089996,608.2252079009995,None,609.2251665019994,610.055269679,609.2251665019994,610.055269679,610.055269679,None,610.055269679,None,space,610.055269679,None,0.8283,610.5467072659994,None,0.3611549950001063,,,,,,,DEC008,001,2022_Jun_29_1729,2-25_cond_decay_EYE-try,2021.2.3,165.6226477452708,
right,1.0,0.75,0,1,0,1,0,0,0,0,0,0,9,9,1,,,,,,,,,,,,,,,1s,611.6000926239994,612.6008334169992,612.5886442329993,None,613.5892809529996,614.2801639499994,613.5892809529996,614.2801639499994,614.2801639499994,None,614.2801639499994,None,space,614.2801639499994,None,0.6901,614.7752871349994,None,0.3682678779996422,,,,,,,DEC008,001,2022_Jun_29_1729,2-25_cond_decay_EYE-try,2021.2.3,165.6226477452708,
right,1.0,0.75,0,1,0,1,0,0,0,0,0,1,0,10,7,,,,,,,,,,,,,,,1s,615.8306673110001,616.831455085,616.8197285899996,None,617.8188761449992,618.8197303659999,617.8188761449992,618.8197303659999,618.8197303659999,None,618.8197303659999,None,space,618.8197303659999,None,0.9986,619.2784099549999,None,0.3326919109995288,,,,,,,DEC008,001,2022_Jun_29_1729,2-25_cond_decay_EYE-try,2021.2.3,165.6226477452708,
left,1.0,0.75,1,1,0,1,0,0,0,0,0,1,1,11,9,,,,,,,,,,,,,,,1s,620.3394660399999,621.3406584909999,621.3347909469994,None,622.3343636179998,623.0614363689992,622.3343636179998,623.0614363689992,623.0614363689992,None,623.0614363689992,None,space,623.0614363689992,None,0.7277,623.5530381829994,None,0.36306583199984743,,,,,,,DEC008,001,2022_Jun_29_1729,2-25_cond_decay_EYE-try,2021.2.3,165.6226477452708,
right,1.0,0.75,0,1,0,1,0,0,0,0,0,1,2,12,1,,,,,,,,,,,,,,,1s,624.605623851,625.6075495389996,625.6005786219994,None,626.6014273109995,627.4974590739994,626.6014273109995,627.4974590739994,627.4974590739994,None,627.4974590739994,None,space,627.4974590739994,None,0.8955,627.9524831979998,None,0.32696243800000957,,,,,,,DEC008,001,2022_Jun_29_1729,2-25_cond_decay_EYE-try,2021.2.3,165.6226477452708,
right,0.75,1.0,1,1,0,1,0,0,0,0,0,1,3,13,2,,,,,,,,,,,,,,,1s,629.0063537629994,630.006675132,630.0009041089997,None,631.0015636429998,631.7465407169993,631.0015636429998,631.7465407169993,631.7465407169993,None,631.7465407169993,None,space,631.7465407169993,None,0.7442,632.2669269009994,None,0.3818898019999324,,,,,,,DEC008,001,2022_Jun_29_1729,2-25_cond_decay_EYE-try,2021.2.3,165.6226477452708,
left,0.75,1.0,0,1,0,1,0,0,0,0,0,1,4,14,8,,,,,,,,,,,,,,,1s,633.3265961059997,634.3286137139994,634.3161723619996,None,635.3160663549997,635.5582851099998,635.3160663549997,635.5582851099998,635.5649330059996,None,635.5649330059996,None,space,635.5649330059996,None,0.2434,636.1750045129993,None,0.4754983299999367,,,,,,,DEC008,001,2022_Jun_29_1729,2-25_cond_decay_EYE-try,2021.2.3,165.6226477452708,
right,1.0,0.75,0,1,0,1,0,0,0,0,0,1,5,15,4,,,,,,,,,,,,,,,1s,637.2237947599997,638.2253339439994,638.219520615,None,639.2186910439996,639.6307967659995,639.2186910439996,639.6307967659995,639.6307967659995,None,639.6307967659995,None,space,639.6307967659995,None,0.4132,640.0908295149993,None,0.32162737199996627,,,,,,,DEC008,001,2022_Jun_29_1729,2-25_cond_decay_EYE-try,2021.2.3,165.6226477452708,
right,1.0,0.75,0,1,0,1,0,0,0,0,0,1,6,16,5,,,,,,,,,,,,,,,1s,641.1448660629994,642.1467476099997,642.1398179849994,None,643.1407041399998,643.340456639,643.1407041399998,643.340456639,643.340456639,None,643.340456639,None,space,643.340456639,None,0.1967,643.8722808809998,None,0.3959756499998548,,,,,,,DEC008,001,2022_Jun_29_1729,2-25_cond_decay_EYE-try,2021.2.3,165.6226477452708,
left,0.75,1.0,0,1,0,1,0,0,0,0,0,1,7,17,6,,,,,,,,,,,,,,,1s,644.9324076289995,645.9345317609996,645.9218130399995,None,646.9224063229994,647.3707038590001,646.9224063229994,647.3707038590001,647.3707038590001,None,647.3707038590001,None,space,647.3707038590001,None,0.4485,647.8497635509993,None,0.34973091300071246,,,,,,,DEC008,001,2022_Jun_29_1729,2-25_cond_decay_EYE-try,2021.2.3,165.6226477452708,
left,0.75,1.0,0,1,0,1,0,0,0,0,0,1,8,18,0,,,,,,,,,,,,,,,1s,648.8981043629992,649.8979691609993,649.8919697419997,None,650.8915379909995,651.2854514169994,650.8915379909995,651.2854514169994,651.2799355110001,None,651.2799355110001,None,space,651.2799355110001,None,0.3892,651.7220464669999,None,0.3125215609998122,,,,,,,DEC008,001,2022_Jun_29_1729,2-25_cond_decay_EYE-try,2021.2.3,165.6226477452708,
left,0.75,1.0,0,1,0,1,0,0,0,0,0,1,9,19,3,,,,,,,,,,,,,,,1s,652.7760209179996,653.7765342109997,653.7699540119993,None,654.7706064629992,655.6252573239999,654.7706064629992,655.6252573239999,655.6252573239999,None,655.6252573239999,None,space,655.6252573239999,None,0.8541,656.0728104139998,None,0.31118589399920893,,,,,,,DEC008,001,2022_Jun_29_1729,2-25_cond_decay_EYE-try,2021.2.3,165.6226477452708,
,,,,1,0,1,0,0,0,0,0,,,,,,,,,,,,,,,,,,,,,,,,,,,,,,,,,,,,,,,,,,,,,DEC008,001,2022_Jun_29_1729,2-25_cond_decay_EYE-try,2021.2.3,165.6226477452708,
right,1.0,0.75,0,1,0,1,0,1,0,1,0,0,0,0,6,,,,,,,,,656.9644456179994,None,656.9644456179994,None,656.9644456179994,None,3s,659.1385528699993,660.1401306849993,660.1284107470001,None,661.1275699999997,663.1883835829994,661.1275699999997,663.1883835829994,663.1951018379996,None,663.1951018379996,None,space,663.1951018379996,None,2.0621,663.6418952739996,None,0.3093390790008925,,,,,,,DEC008,001,2022_Jun_29_1729,2-25_cond_decay_EYE-try,2021.2.3,165.6226477452708,
right,1.0,0.75,0,1,0,1,0,1,0,1,0,0,1,1,1,,,,,,,,,,,,,,,3s,664.6961021879997,665.6973748329992,665.6849669309995,None,666.6855268669997,666.9586104459995,666.6855268669997,666.9586104459995,666.9586104459995,None,666.9586104459995,None,space,666.9586104459995,None,0.2713,667.4413599709997,None,0.34583517400005803,,,,,,,DEC008,001,2022_Jun_29_1729,2-25_cond_decay_EYE-try,2021.2.3,165.6226477452708,
left,1.0,0.75,1,1,0,1,0,1,0,1,0,0,2,2,5,,,,,,,,,,,,,,,3s,668.5019743569992,669.5033290129995,669.4909712919998,None,670.4912390939999,671.7210170939998,670.4912390939999,671.7210170939998,671.7142195749993,None,671.7142195749993,None,None,671.7142195749993,None,1.22,672.8413276499996,None,,,,,,,,DEC008,001,2022_Jun_29_1729,2-25_cond_decay_EYE-try,2021.2.3,165.6226477452708,
right,1.0,0.75,0,1,0,1,0,1,0,1,0,0,3,3,7,,,,,,,,,,,,,,,3s,673.8956998129997,674.8971337969997,674.885099567,None,675.8848909839999,676.87904669,675.8848909839999,676.87904669,676.8722686069996,None,676.8722686069996,None,space,676.8722686069996,None,0.9833,677.410938735,None,0.40025954699922295,,,,,,,DEC008,001,2022_Jun_29_1729,2-25_cond_decay_EYE-try,2021.2.3,165.6226477452708,
left,0.75,1.0,0,1,0,1,0,1,0,1,0,0,4,4,0,,,,,,,,,,,,,,,3s,678.459324767,679.4607378419996,679.449360003,None,680.4490042519992,683.0608376149994,680.4490042519992,683.0608376149994,683.0608376149994,None,683.0608376149994,None,space,683.0608376149994,None,2.611,683.5455808719998,None,0.3556096649999745,,,,,,,DEC008,001,2022_Jun_29_1729,2-25_cond_decay_EYE-try,2021.2.3,165.6226477452708,
left,0.75,1.0,0,1,0,1,0,1,0,1,0,0,5,5,2,,,,,,,,,,,,,,,3s,684.598999967,685.6000696649999,685.5940477919994,None,686.5939478099999,687.4123247629996,686.5939478099999,687.4123247629996,687.4123247629996,None,687.4123247629996,None,None,687.4123247629996,None,0.8188,688.5388076439995,None,,,,,,,,DEC008,001,2022_Jun_29_1729,2-25_cond_decay_EYE-try,2021.2.3,165.6226477452708,
left,0.75,1.0,0,1,0,1,0,1,0,1,0,0,6,6,9,,,,,,,,,,,,,,,3s,689.5928080690001,690.5946637319994,690.5816845449999,None,691.5823264410001,693.6539720379997,691.5823264410001,693.6539720379997,693.6469842529996,None,693.6469842529996,None,space,693.6469842529996,None,2.062,694.1505578179995,None,0.3614479770003527,,,,,,,DEC008,001,2022_Jun_29_1729,2-25_cond_decay_EYE-try,2021.2.3,165.6226477452708,
left,0.75,1.0,0,1,0,1,0,1,0,1,0,0,7,7,4,,,,,,,,,,,,,,,3s,695.1993796379993,696.1997978489999,696.1938499099997,None,697.1942269499996,697.7385978749999,697.1942269499996,697.7385978749999,697.7319372100001,None,697.7319372100001,None,space,697.7319372100001,None,0.5352,698.2658895619998,None,0.3965028490001714,,,,,,,DEC008,001,2022_Jun_29_1729,2-25_cond_decay_EYE-try,2021.2.3,165.6226477452708,
right,0.75,1.0,1,1,0,1,0,1,0,1,0,0,8,8,3,,,,,,,,,,,,,,,3s,699.3260061359997,700.3270126449997,700.3155925739993,None,701.3155081609993,702.4126257929993,701.3155081609993,702.4126257929993,702.4126257929993,None,702.4126257929993,None,None,702.4126257929993,None,1.0959,703.5385914169992,None,,,,,,,,DEC008,001,2022_Jun_29_1729,2-25_cond_decay_EYE-try,2021.2.3,165.6226477452708,
right,1.0,0.75,0,1,0,1,0,1,0,1,0,0,9,9,8,,,,,,,,,,,,,,,3s,704.5821341829997,705.5818277039998,705.5818277039998,None,706.5819236499992,708.8532194359996,706.5819236499992,708.8532194359996,708.8467663639994,None,708.8467663639994,None,space,708.8467663639994,None,2.263,709.3270960709997,None,0.3457148480001706,,,,,,,DEC008,001,2022_Jun_29_1729,2-25_cond_decay_EYE-try,2021.2.3,165.6226477452708,
left,0.75,1.0,0,1,0,1,0,1,0,1,0,1,0,10,9,,,,,,,,,,,,,,,3s,710.3749405449998,711.3759121409994,711.3637869579998,None,712.3635169969994,713.0851747299994,712.3635169969994,713.0851747299994,713.0851747299994,None,713.0851747299994,None,space,713.0851747299994,None,0.7167,713.5995548609999,None,0.387262830000509,,,,,,,DEC008,001,2022_Jun_29_1729,2-25_cond_decay_EYE-try,2021.2.3,165.6226477452708,
right,1.0,0.75,0,1,0,1,0,1,0,1,0,1,1,11,1,,,,,,,,,,,,,,,3s,714.6529004019994,715.6548376379997,715.6426103829999,None,716.6427149149995,719.1872682609992,716.6427149149995,719.1872682609992,719.1872682609992,None,719.1872682609992,None,space,719.1872682609992,None,2.5402,719.6771095710001,None,0.3571802400001616,,,,,,,DEC008,001,2022_Jun_29_1729,2-25_cond_decay_EYE-try,2021.2.3,165.6226477452708,
right,1.0,0.75,0,1,0,1,0,1,0,1,0,1,2,12,7,,,,,,,,,,,,,,,3s,720.7256488569992,721.7275465849998,721.7215162989996,None,722.720725016,723.6526755859995,722.720725016,723.6526755859995,723.6470949779996,None,723.6470949779996,None,space,723.6470949779996,None,0.9271,724.1693735139997,None,0.393359237000368,,,,,,,DEC008,001,2022_Jun_29_1729,2-25_cond_decay_EYE-try,2021.2.3,165.6226477452708,
right,0.75,1.0,1,1,0,1,0,1,0,1,0,1,3,13,3,,,,,,,,,,,,,,,3s,725.2226460829997,726.2242807389994,726.2182567089994,None,727.2178600689995,727.7571594369992,727.2178600689995,727.7571594369992,727.7571594369992,None,727.7571594369992,None,space,727.7571594369992,None,0.536,728.2965683039993,None,0.411340268999993,,,,,,,DEC008,001,2022_Jun_29_1729,2-25_cond_decay_EYE-try,2021.2.3,165.6226477452708,
left,0.75,1.0,0,1,0,1,0,1,0,1,0,1,4,14,2,,,,,,,,,,,,,,,3s,729.355808364,730.3573670919995,730.3506950989995,None,731.3452354369992,734.1027617719992,731.3452354369992,734.1027617719992,734.1027617719992,None,734.1027617719992,None,space,734.1027617719992,None,2.7589,734.5919332269996,None,0.3536921179993442,,,,,,,DEC008,001,2022_Jun_29_1729,2-25_cond_decay_EYE-try,2021.2.3,165.6226477452708,
right,1.0,0.75,0,1,0,1,0,1,0,1,0,1,5,15,6,,,,,,,,,,,,,,,3s,735.646559879,736.6483998619997,736.6359689069996,None,737.6360259999992,739.7693449929993,737.6360259999992,739.7693449929993,739.7693449929993,None,739.7693449929993,None,space,739.7693449929993,None,2.1322,740.3678226049997,None,0.46310526999968715,,,,,,,DEC008,001,2022_Jun_29_1729,2-25_cond_decay_EYE-try,2021.2.3,165.6226477452708,
left,1.0,0.75,1,1,0,1,0,1,0,1,0,1,6,16,5,,,,,,,,,,,,,,,3s,741.4283932499993,742.4297910389996,742.4182758029992,None,743.4176106149998,744.3387923569999,743.4176106149998,744.3387923569999,744.3387923569999,None,744.3387923569999,None,space,744.3387923569999,None,0.9172,744.841506531,None,0.37365774999943824,,,,,,,DEC008,001,2022_Jun_29_1729,2-25_cond_decay_EYE-try,2021.2.3,165.6226477452708,
right,1.0,0.75,0,1,0,1,0,1,0,1,0,1,7,17,8,,,,,,,,,,,,,,,3s,745.9015890159999,746.9021157269999,746.8962788989993,None,747.8967372199995,750.2358993170001,747.8967372199995,750.2358993170001,750.228999938,None,750.228999938,None,space,750.228999938,None,2.3321,750.7133801939999,None,0.34744578299978457,,,,,,,DEC008,001,2022_Jun_29_1729,2-25_cond_decay_EYE-try,2021.2.3,165.6226477452708,
left,0.75,1.0,0,1,0,1,0,1,0,1,0,1,8,18,0,,,,,,,,,,,,,,,3s,751.7737130769992,752.7754978789999,752.7696028849996,None,753.7693147780001,754.6662249179999,753.7693147780001,754.6662249179999,754.66045493,None,754.66045493,None,space,754.66045493,None,0.8943,755.2888934829998,None,0.491945179999675,,,,,,,DEC008,001,2022_Jun_29_1729,2-25_cond_decay_EYE-try,2021.2.3,165.6226477452708,
left,0.75,1.0,0,1,0,1,0,1,0,1,0,1,9,19,4,,,,,,,,,,,,,,,3s,756.3439464459998,757.3449676,757.3389628449995,None,758.3390863469995,758.744075134,758.3390863469995,758.744075134,758.7372929569992,None,758.7372929569992,None,space,758.7372929569992,None,0.3944,759.337667492,None,0.46315679800045473,,,,,,,DEC008,001,2022_Jun_29_1729,2-25_cond_decay_EYE-try,2021.2.3,165.6226477452708,
,,,,1,0,1,0,1,0,1,0,,,,,,,,,,,,,,,,,,,,,,,,,,,,,,,,,,,,,,,,,,,,,DEC008,001,2022_Jun_29_1729,2-25_cond_decay_EYE-try,2021.2.3,165.6226477452708,
right,0.75,1.0,1,1,0,1,0,2,0,2,0,0,0,0,9,,,,,,,,,760.2298812669997,None,760.2298812669997,None,760.2298812669997,None,5s,763.0284042650001,764.0291388259993,764.0174639179995,None,765.0179890259997,768.538403818,765.0179890259997,768.538403818,768.538403818,None,768.538403818,None,space,768.538403818,None,3.5172,769.0179784419997,None,0.34203333200002817,,,,,,,DEC008,001,2022_Jun_29_1729,2-25_cond_decay_EYE-try,2021.2.3,165.6226477452708,
left,1.0,0.75,1,1,0,1,0,2,0,2,0,0,1,1,8,,,,,,,,,,,,,,,5s,770.0774030570001,771.0780162419996,771.0654773589995,None,772.0664030129992,775.0178977969999,772.0664030129992,775.0178977969999,775.0178977969999,None,775.0178977969999,None,space,775.0178977969999,None,2.9504,775.5674265389998,None,0.41454869500012137,,,,,,,DEC008,001,2022_Jun_29_1729,2-25_cond_decay_EYE-try,2021.2.3,165.6226477452708,
left,0.75,1.0,0,1,0,1,0,2,0,2,0,0,2,2,5,,,,,,,,,,,,,,,5s,776.6166644599998,777.6177054869995,777.6117831519996,None,778.6117232869992,781.9023244809996,778.6117232869992,781.9023244809996,781.9023244809996,None,781.9023244809996,None,None,781.9023244809996,None,3.2906,783.0278610709993,None,,,,,,,,DEC008,001,2022_Jun_29_1729,2-25_cond_decay_EYE-try,2021.2.3,165.6226477452708,
left,0.75,1.0,0,1,0,1,0,2,0,2,0,0,3,3,6,,,,,,,,,,,,,,,5s,784.0763429999997,785.0778945469992,785.0720826789993,None,786.0718598670001,787.078276831,786.0718598670001,787.078276831,787.078276831,None,787.078276831,None,space,787.078276831,None,1.0073,787.670276412,None,0.45017439700040995,,,,,,,DEC008,001,2022_Jun_29_1729,2-25_cond_decay_EYE-try,2021.2.3,165.6226477452708,
right,1.0,0.75,0,1,0,1,0,2,0,2,0,0,4,4,2,,,,,,,,,,,,,,,5s,788.7249902329995,789.726473744,789.7206496359995,None,790.7197737209999,791.5505009009994,790.7197737209999,791.5505009009994,791.5437208699996,None,791.5437208699996,None,None,791.5437208699996,None,0.8213,792.6702691719993,None,,,,,,,,DEC008,001,2022_Jun_29_1729,2-25_cond_decay_EYE-try,2021.2.3,165.6226477452708,
right,1.0,0.75,0,1,0,1,0,2,0,2,0,0,5,5,4,,,,,,,,,,,,,,,5s,793.719905209,794.7197880979993,794.7140388629996,None,795.7135981599995,798.5750232699993,795.7135981599995,798.5750232699993,798.5750232699993,None,798.5750232699993,None,space,798.5750232699993,None,2.8609,799.0702488069992,None,0.35343448799994803,,,,,,,DEC008,001,2022_Jun_29_1729,2-25_cond_decay_EYE-try,2021.2.3,165.6226477452708,
right,1.0,0.75,0,1,0,1,0,2,0,2,0,0,6,6,0,,,,,,,,,,,,,,,5s,800.1189942430001,801.119651344,801.114099122,None,802.114517645,803.0653652009996,802.114517645,803.0653652009996,803.0653652009996,None,803.0653652009996,None,space,803.0653652009996,None,0.9482,803.712567136,None,0.5110864209991632,,,,,,,DEC008,001,2022_Jun_29_1729,2-25_cond_decay_EYE-try,2021.2.3,165.6226477452708,
left,0.75,1.0,0,1,0,1,0,2,0,2,0,0,7,7,3,,,,,,,,,,,,,,,5s,804.7742082989998,805.7743224289998,805.7682843019993,None,806.7689816489992,810.8642250339999,806.7689816489992,810.8642250339999,810.857581194,None,810.857581194,None,space,810.857581194,None,4.0885,811.3670095869993,None,0.3748956460003683,,,,,,,DEC008,001,2022_Jun_29_1729,2-25_cond_decay_EYE-try,2021.2.3,165.6226477452708,
right,0.75,1.0,1,1,0,1,0,2,0,2,0,0,8,8,1,,,,,,,,,,,,,,,5s,812.4217530149999,813.42300196,813.4110261939995,None,814.41056002,814.9741653769997,814.41056002,814.9741653769997,814.9674755159995,None,814.9674755159995,None,space,814.9674755159995,None,0.5525,815.5128124389994,None,0.40905642500001704,,,,,,,DEC008,001,2022_Jun_29_1729,2-25_cond_decay_EYE-try,2021.2.3,165.6226477452708,
right,1.0,0.75,0,1,0,1,0,2,0,2,0,0,9,9,7,,,,,,,,,,,,,,,5s,816.5675285919997,817.5682364889999,817.561927967,None,818.5621388729996,819.2166276509997,818.5621388729996,819.2166276509997,819.2166276509997,None,819.2166276509997,None,space,819.2166276509997,None,0.6504,819.7121515459994,None,0.35981944700051827,,,,,,,DEC008,001,2022_Jun_29_1729,2-25_cond_decay_EYE-try,2021.2.3,165.6226477452708,
right,0.75,1.0,1,1,0,1,0,2,0,2,0,1,0,10,1,,,,,,,,,,,,,,,5s,820.7676389399994,821.767841891,821.7563213879994,None,822.755877568,823.8288270119992,822.755877568,823.8288270119992,823.8220565449992,None,823.8220565449992,None,space,823.8220565449992,None,1.0629,824.5303377029995,None,0.5704177590005202,,,,,,,DEC008,001,2022_Jun_29_1729,2-25_cond_decay_EYE-try,2021.2.3,165.6226477452708,
right,1.0,0.75,0,1,0,1,0,2,0,2,0,1,1,11,2,,,,,,,,,,,,,,,5s,825.5848655469999,826.5866358419999,826.5743054279992,None,827.5748600299994,828.513407255,827.5748600299994,828.513407255,828.513407255,None,828.513407255,None,space,828.513407255,None,0.9378,829.1069540169992,None,0.45502505199965526,,,,,,,DEC008,001,2022_Jun_29_1729,2-25_cond_decay_EYE-try,2021.2.3,165.6226477452708,
left,1.0,0.75,1,1,0,1,0,2,0,2,0,1,2,12,8,,,,,,,,,,,,,,,5s,830.161792973,831.161827037,831.1558912029996,None,832.156617443,834.2579793509994,832.156617443,834.2579793509994,834.2513306209994,None,834.2513306209994,None,space,834.2513306209994,None,2.0932,834.7733242799995,None,0.3891448999993372,,,,,,,DEC008,001,2022_Jun_29_1729,2-25_cond_decay_EYE-try,2021.2.3,165.6226477452708,
left,0.75,1.0,0,1,0,1,0,2,0,2,0,1,3,13,6,,,,,,,,,,,,,,,5s,835.8278540249994,836.8291816559995,836.8166909379997,None,837.8162131399995,841.0581938429996,837.8162131399995,841.0581938429996,841.051439586,None,841.051439586,None,space,841.051439586,None,3.2324,841.5422501869998,None,0.3570254070000374,,,,,,,DEC008,001,2022_Jun_29_1729,2-25_cond_decay_EYE-try,2021.2.3,165.6226477452708,
left,0.75,1.0,0,1,0,1,0,2,0,2,0,1,4,14,3,,,,,,,,,,,,,,,5s,842.5916201669997,843.5923934919992,843.5863416829998,None,844.5862631169994,847.7191287119995,844.5862631169994,847.7191287119995,847.7191287119995,None,847.7191287119995,None,space,847.7191287119995,None,3.1301,848.1905057349995,None,0.33731057600016356,,,,,,,DEC008,001,2022_Jun_29_1729,2-25_cond_decay_EYE-try,2021.2.3,165.6226477452708,
right,1.0,0.75,0,1,0,1,0,2,0,2,0,1,5,15,7,,,,,,,,,,,,,,,5s,849.2460472949997,850.2471104030001,850.2349429219994,None,851.2343020129993,853.0835038039995,851.2343020129993,853.0835038039995,853.0835038039995,None,853.0835038039995,None,space,853.0835038039995,None,1.8474,853.6646843359995,None,0.4529598030003399,,,,,,,DEC008,001,2022_Jun_29_1729,2-25_cond_decay_EYE-try,2021.2.3,165.6226477452708,
right,1.0,0.75,0,1,0,1,0,2,0,2,0,1,6,16,4,,,,,,,,,,,,,,,5s,854.7178466579999,855.7199213859994,855.713307426,None,856.7134144229994,858.7014551469993,856.7134144229994,858.7014551469993,858.7014551469993,None,858.7014551469993,None,space,858.7014551469993,None,1.9876,859.1684836369996,None,0.33908032399995136,,,,,,,DEC008,001,2022_Jun_29_1729,2-25_cond_decay_EYE-try,2021.2.3,165.6226477452708,
right,1.0,0.75,0,1,0,1,0,2,0,2,0,1,7,17,0,,,,,,,,,,,,,,,5s,860.2148706979997,861.2158779539996,861.2106715659993,None,862.2099897709995,866.4408926739998,862.2099897709995,866.4408926739998,866.4408926739998,None,866.4408926739998,None,space,866.4408926739998,None,4.2263,866.9376790259994,None,0.3675670570000875,,,,,,,DEC008,001,2022_Jun_29_1729,2-25_cond_decay_EYE-try,2021.2.3,165.6226477452708,
left,0.75,1.0,0,1,0,1,0,2,0,2,0,1,8,18,9,,,,,,,,,,,,,,,5s,867.9973466799993,868.9982224509995,868.9923558729997,None,869.9915769270001,870.6464295689993,869.9915769270001,870.6464295689993,870.6464295689993,None,870.6464295689993,None,space,870.6464295689993,None,0.6546,871.4632064029993,None,0.6820318249992852,,,,,,,DEC008,001,2022_Jun_29_1729,2-25_cond_decay_EYE-try,2021.2.3,165.6226477452708,
left,0.75,1.0,0,1,0,1,0,2,0,2,0,1,9,19,5,,,,,,,,,,,,,,,5s,872.5122679649994,873.5134476799994,873.5075577549997,None,874.5072352279994,876.0764504819999,874.5072352279994,876.0764504819999,876.0764504819999,877.0764158639995,876.0764504819999,877.0764158639995,None,876.0764504819999,877.0764158639995,1.5709,877.2095375969993,None,,,,,,,,DEC008,001,2022_Jun_29_1729,2-25_cond_decay_EYE-try,2021.2.3,165.6226477452708,
,,,,1,0,1,0,2,0,2,0,,,,,,,,,,,,,,,,,,,,,,,,,,,,,,,,,,,,,,,,,,,,,DEC008,001,2022_Jun_29_1729,2-25_cond_decay_EYE-try,2021.2.3,165.6226477452708,
right,1.0,0.75,0,1,0,1,0,3,0,3,0,0,0,0,6,,,,,,,,,878.1002776259993,None,878.1002776259993,None,878.1002776259993,None,10s,882.905451349,883.9064553839999,883.9005117819997,None,884.9004015999999,885.9312123079999,884.9004015999999,885.9312123079999,885.9255512089994,None,885.9255512089994,None,space,885.9255512089994,None,1.0284,886.4758535279998,None,0.41092522800045117,,,,,,,DEC008,001,2022_Jun_29_1729,2-25_cond_decay_EYE-try,2021.2.3,165.6226477452708,
right,1.0,0.75,0,1,0,1,0,3,0,3,0,0,1,1,8,,,,,,,,,,,,,,,10s,887.5187320879995,888.5186409139997,888.512865658,None,889.518708562,895.3974850229997,889.518708562,895.3974850229997,895.3974850229997,None,895.3974850229997,None,space,895.3974850229997,None,5.8787,896.010398331,None,0.48298895199968683,,,,,,,DEC008,001,2022_Jun_29_1729,2-25_cond_decay_EYE-try,2021.2.3,165.6226477452708,
left,0.75,1.0,0,1,0,1,0,3,0,3,0,0,2,2,9,,,,,,,,,,,,,,,10s,897.0690198709999,898.0708692640001,898.0639279449997,907.6095199019992,899.0645731750001,906.6216180879992,899.0645731750001,906.6216180879992,906.6148983419998,None,906.6148983419998,None,None,906.6148983419998,None,7.5468,907.7413632219996,None,,,,,,,,DEC008,001,2022_Jun_29_1729,2-25_cond_decay_EYE-try,2021.2.3,165.6226477452708,
right,1.0,0.75,0,1,0,1,0,3,0,3,0,0,3,3,5,,,,,,,,,,,,,,,10s,908.7961897239993,909.797277572,909.7912952480001,None,910.7915107059998,920.584963581,910.7915107059998,920.584963581,920.5782662419997,None,920.5782662419997,None,space,920.5782662419997,None,9.7838,921.0941738900001,None,0.3822347699997408,,,,,,,DEC008,001,2022_Jun_29_1729,2-25_cond_decay_EYE-try,2021.2.3,165.6226477452708,
left,0.75,1.0,0,1,0,1,0,3,0,3,0,0,4,4,0,,,,,,,,,,,,,,,10s,922.1476732929996,923.1492486769994,923.1365436169999,None,924.1366235819996,924.336930634,924.1366235819996,924.336930634,924.336930634,None,924.336930634,None,space,924.336930634,None,0.2008,924.9898703529998,None,0.5196173240001372,,,,,,,DEC008,001,2022_Jun_29_1729,2-25_cond_decay_EYE-try,2021.2.3,165.6226477452708,
right,1.0,0.75,0,1,0,1,0,3,0,3,0,0,5,5,3,,,,,,,,,,,,,,,10s,926.0402384469999,927.0402460119994,927.0333874939997,None,928.0334165029999,929.051472741,928.0334165029999,929.051472741,929.051472741,None,929.051472741,None,space,929.051472741,None,1.0179,929.5775679449998,None,0.38900083399948926,,,,,,,DEC008,001,2022_Jun_29_1729,2-25_cond_decay_EYE-try,2021.2.3,165.6226477452708,
right,0.75,1.0,1,1,0,1,0,3,0,3,0,0,6,6,7,,,,,,,,,,,,,,,10s,930.632095471,931.6334123059996,931.6210900379992,None,932.6218162349996,940.4937456809994,932.6218162349996,940.4937456809994,940.4937456809994,None,940.4937456809994,None,None,940.4937456809994,None,7.8692,941.6205752899996,None,,,,,,,,DEC008,001,2022_Jun_29_1729,2-25_cond_decay_EYE-try,2021.2.3,165.6226477452708,
left,0.75,1.0,0,1,0,1,0,3,0,3,0,0,7,7,1,,,,,,,,,,,,,,,10s,942.6683482619992,943.6699434869997,943.6576644779998,None,944.6580987859998,950.5669176470001,944.6580987859998,950.5669176470001,950.561119602,None,950.561119602,None,space,950.561119602,None,5.9037,951.0865698769994,None,0.3833603429993673,,,,,,,DEC008,001,2022_Jun_29_1729,2-25_cond_decay_EYE-try,2021.2.3,165.6226477452708,
left,1.0,0.75,1,1,0,1,0,3,0,3,0,0,8,8,2,,,,,,,,,,,,,,,10s,952.1353845229996,953.1364017149999,953.1238161859992,None,954.123927222,961.0332580059994,954.123927222,961.0332580059994,961.039669973,None,961.039669973,None,space,961.039669973,None,6.9099,961.5288303909992,None,0.3528087470003811,,,,,,,DEC008,001,2022_Jun_29_1729,2-25_cond_decay_EYE-try,2021.2.3,165.6226477452708,
left,0.75,1.0,0,1,0,1,0,3,0,3,0,0,9,9,4,,,,,,,,,,,,,,,10s,962.5792036169996,963.5787151329996,963.5729845329997,None,964.57263349,964.7607524389996,964.57263349,964.7607524389996,964.7607524389996,None,964.7607524389996,None,space,964.7607524389996,None,0.1832,965.328975772999,None,0.4317066550011077,,,,,,,DEC008,001,2022_Jun_29_1729,2-25_cond_decay_EYE-try,2021.2.3,165.6226477452708,
left,0.75,1.0,0,1,0,1,0,3,0,3,0,1,0,10,0,,,,,,,,,,,,,,,10s,966.3778647720001,967.3790642859994,967.3722099590004,None,968.3725178659997,977.0263434719991,968.3725178659997,977.0263434719991,977.0194774450001,None,977.0194774450001,None,space,977.0194774450001,None,8.6463,977.4808817309995,None,0.32500554400030524,,,,,,,DEC008,001,2022_Jun_29_1729,2-25_cond_decay_EYE-try,2021.2.3,165.6226477452708,
right,1.0,0.75,0,1,0,1,0,3,0,3,0,1,1,11,3,,,,,,,,,,,,,,,10s,978.5406915909998,979.5422879749995,979.5305649270003,None,980.5304856979992,985.1420068889993,980.5304856979992,985.1420068889993,985.1420068889993,None,985.1420068889993,None,space,985.1420068889993,None,4.6129,985.601725218,None,0.3224758730011672,,,,,,,DEC008,001,2022_Jun_29_1729,2-25_cond_decay_EYE-try,2021.2.3,165.6226477452708,
right,1.0,0.75,0,1,0,1,0,3,0,3,0,1,2,12,5,,,,,,,,,,,,,,,10s,986.6557620920003,987.6572508149993,987.6454714549991,None,988.6447425719989,993.5296076370005,988.6447425719989,993.5296076370005,993.5296076370005,None,993.5296076370005,None,space,993.5296076370005,None,4.8804,994.0262182839988,None,0.35885328499898606,,,,,,,DEC008,001,2022_Jun_29_1729,2-25_cond_decay_EYE-try,2021.2.3,165.6226477452708,
left,0.75,1.0,0,1,0,1,0,3,0,3,0,1,3,13,4,,,,,,,,,,,,,,,10s,995.0858113209988,996.0878817089988,996.0752725529992,None,997.0750744899988,1006.1296701679994,997.0750744899988,1006.1296701679994,1006.1360676189988,None,1006.1360676189988,None,None,1006.1360676189988,None,9.0556,1007.2620734229995,None,,,,,,,,DEC008,001,2022_Jun_29_1729,2-25_cond_decay_EYE-try,2021.2.3,165.6226477452708,
right,1.0,0.75,0,1,0,1,0,3,0,3,0,1,4,14,6,,,,,,,,,,,,,,,10s,1008.316092307,1009.3170865620004,1009.3049784189998,None,1010.3049853879993,1016.3835201379998,1010.3049853879993,1016.3835201379998,1016.3770563299995,None,1016.3770563299995,None,space,1016.3770563299995,None,6.0681,1017.1585960599996,None,0.6394112529997074,,,,,,,DEC008,001,2022_Jun_29_1729,2-25_cond_decay_EYE-try,2021.2.3,165.6226477452708,
left,1.0,0.75,1,1,0,1,0,3,0,3,0,1,5,15,2,,,,,,,,,,,,,,,10s,1018.2077494499999,1019.2087467579995,1019.1962825159999,None,1020.1961609639993,1029.4320756200004,1020.1961609639993,1029.4320756200004,1029.4320756200004,None,1029.4320756200004,None,space,1029.4320756200004,None,9.2341,1030.2980314339993,None,0.7284128519986552,,,,,,,DEC008,001,2022_Jun_29_1729,2-25_cond_decay_EYE-try,2021.2.3,165.6226477452708,
right,0.75,1.0,1,1,0,1,0,3,0,3,0,1,6,16,7,,,,,,,,,,,,,,,10s,1031.3529284549995,1032.3534573039988,1032.341214399,None,1033.341625611999,1034.2443895900005,1033.341625611999,1034.2443895900005,1034.2443895900005,None,1034.2443895900005,None,space,1034.2443895900005,None,0.9011,1034.849504114999,None,0.4680912339990755,,,,,,,DEC008,001,2022_Jun_29_1729,2-25_cond_decay_EYE-try,2021.2.3,165.6226477452708,
left,0.75,1.0,0,1,0,1,0,3,0,3,0,1,7,17,1,,,,,,,,,,,,,,,10s,1035.9043068660003,1036.9055551419997,1036.8930740080004,None,1037.8926662989988,1042.9235279189988,1037.8926662989988,1042.9235279189988,1042.9235279189988,None,1042.9235279189988,None,space,1042.9235279189988,None,5.0307,1043.5221301909996,None,0.4609570749998966,,,,,,,DEC008,001,2022_Jun_29_1729,2-25_cond_decay_EYE-try,2021.2.3,165.6226477452708,
left,0.75,1.0,0,1,0,1,0,3,0,3,0,1,8,18,9,,,,,,,,,,,,,,,10s,1044.5761255829993,1045.5782284349998,1045.5654441039997,None,1046.5651759419989,1053.2812504149997,1046.5651759419989,1053.2812504149997,1053.2812504149997,None,1053.2812504149997,None,space,1053.2812504149997,None,6.7111,1053.782832554999,None,0.3672397259997524,,,,,,,DEC008,001,2022_Jun_29_1729,2-25_cond_decay_EYE-try,2021.2.3,165.6226477452708,
right,1.0,0.75,0,1,0,1,0,3,0,3,0,1,9,19,8,,,,,,,,,,,,,,,10s,1054.831246842,1055.831993970999,1055.826142728999,None,1056.8259057690002,1064.824352105,1056.8259057690002,1064.824352105,1064.8184547779992,None,1064.8184547779992,None,space,1064.8184547779992,None,7.9911,1065.2616463139993,None,0.3100233010009106,,,,,,,DEC008,001,2022_Jun_29_1729,2-25_cond_decay_EYE-try,2021.2.3,165.6226477452708,
,,,,1,0,1,0,3,0,3,0,,,,,,,,,,,,,,,,,,,,,,,,,,,,,,,,,,,,,,,,,,,,,DEC008,001,2022_Jun_29_1729,2-25_cond_decay_EYE-try,2021.2.3,165.6226477452708,
,,,,1,0,1,0,,,,,,,,,,,,,,,,,,,,,,,,,,,,,,,,,,,,,,,,,,,1066.1515449569988,None,1066.1515449569988,None,1066.1515449569988,None,DEC008,001,2022_Jun_29_1729,2-25_cond_decay_EYE-try,2021.2.3,165.6226477452708,
right,0.75,1.0,1,2,0,2,0,0,0,0,0,0,0,0,9,,,,,,,,,1071.1460686649998,None,1071.1460686649998,None,1071.1460686649998,None,10s,1092.9582826920005,1093.9592647599993,1093.9523305779994,None,1094.9531719180004,1098.072514597,1094.9531719180004,1098.072514597,1098.0668499519988,None,1098.0668499519988,None,space,1098.0668499519988,None,3.1113,1098.6422639319999,None,0.437707256000067,,,,,,,DEC008,001,2022_Jun_29_1729,2-25_cond_decay_EYE-try,2021.2.3,165.6226477452708,
right,0.75,1.0,1,2,0,2,0,0,0,0,0,0,1,1,8,,,,,,,,,,,,,,,10s,1099.6921428889991,1100.691748156999,1100.6857457960004,None,1101.6867404189989,1107.0007421580003,1101.6867404189989,1107.0007421580003,1107.0007421580003,None,1107.0007421580003,None,space,1107.0007421580003,None,5.3146,1107.6428494879992,None,0.5037510669990297,,,,,,,DEC008,001,2022_Jun_29_1729,2-25_cond_decay_EYE-try,2021.2.3,165.6226477452708,
right,1.0,0.75,0,2,0,2,0,0,0,0,0,0,2,2,1,,,,,,,,,,,,,,,10s,1108.6970526659998,1109.6979024040002,1109.6922058129994,None,1110.6918633960004,1119.7706815049996,1110.6918633960004,1119.7706815049996,1119.7706815049996,None,1119.7706815049996,None,space,1119.7706815049996,None,9.0749,1120.254904552,None,0.349893308000901,,,,,,,DEC008,001,2022_Jun_29_1729,2-25_cond_decay_EYE-try,2021.2.3,165.6226477452708,
right,1.0,0.75,0,2,0,2,0,0,0,0,0,0,3,3,7,,,,,,,,,,,,,,,10s,1121.3046319920004,1122.3044431059998,1122.2975491440002,None,1123.3037703380005,1126.557135877999,1123.3037703380005,1126.557135877999,1126.551445262,None,1126.551445262,None,space,1126.551445262,None,3.2475,1127.0729338819992,None,0.3850478549993568,,,,,,,DEC008,001,2022_Jun_29_1729,2-25_cond_decay_EYE-try,2021.2.3,165.6226477452708,
left,0.75,1.0,0,2,0,2,0,0,0,0,0,0,4,4,3,,,,,,,,,,,,,,,10s,1128.132872617999,1129.132521175,1129.1264662179992,None,1130.1222588890005,1135.7280880179997,1130.1222588890005,1135.7280880179997,1135.721303645999,None,1135.721303645999,None,space,1135.721303645999,None,5.5979,1136.2180750529997,None,0.35920314400027564,,,,,,,DEC008,001,2022_Jun_29_1729,2-25_cond_decay_EYE-try,2021.2.3,165.6226477452708,
left,0.75,1.0,0,2,0,2,0,0,0,0,0,0,5,5,4,,,,,,,,,,,,,,,10s,1137.266810999,1138.2674040230004,1138.2613608210004,None,1139.2618407189993,1142.3210923649995,1139.2618407189993,1142.3210923649995,1142.3144324100003,None,1142.3144324100003,None,space,1142.3144324100003,None,3.0496,1142.8659591589994,None,0.4140896079989034,,,,,,,DEC008,001,2022_Jun_29_1729,2-25_cond_decay_EYE-try,2021.2.3,165.6226477452708,
left,0.75,1.0,0,2,0,2,0,0,0,0,0,0,6,6,5,,,,,,,,,,,,,,,10s,1143.9204824919989,1144.9223101260004,1144.910193797,None,1145.9093724080003,1148.2192107689998,1145.9093724080003,1148.2192107689998,1148.2192107689998,None,1148.2192107689998,None,space,1148.2192107689998,None,2.3082,1148.7205041219995,None,0.3652855569998792,,,,,,,DEC008,001,2022_Jun_29_1729,2-25_cond_decay_EYE-try,2021.2.3,165.6226477452708,
left,0.75,1.0,0,2,0,2,0,0,0,0,0,0,7,7,6,,,,,,,,,,,,,,,10s,1149.7751237099992,1150.7761498329992,1150.7637885619997,None,1151.764397647,1157.0129647929998,1151.764397647,1157.0129647929998,1157.0129647929998,None,1157.0129647929998,None,space,1157.0129647929998,None,5.2443,1157.59372557,None,0.44351826799902483,,,,,,,DEC008,001,2022_Jun_29_1729,2-25_cond_decay_EYE-try,2021.2.3,165.6226477452708,
right,1.0,0.75,0,2,0,2,0,0,0,0,0,0,8,8,2,,,,,,,,,,,,,,,10s,1158.6544490789993,1159.655346949,1159.6430175340001,None,1160.6430183290004,1167.2004035629989,1160.6430183290004,1167.2004035629989,1167.2004035629989,None,1167.2004035629989,None,space,1167.2004035629989,None,6.5584,1167.7024923439994,None,0.368104676999792,,,,,,,DEC008,001,2022_Jun_29_1729,2-25_cond_decay_EYE-try,2021.2.3,165.6226477452708,
left,1.0,0.75,1,2,0,2,0,0,0,0,0,0,9,9,0,,,,,,,,,,,,,,,10s,1168.7572131459992,1169.758034051999,1169.7522337429991,None,1170.7518489290005,1176.5150644349987,1170.7518489290005,1176.5150644349987,1176.508928102,None,1176.508928102,None,space,1176.508928102,None,5.7557,1177.0418950119993,None,0.3956307560001733,,,,,,,DEC008,001,2022_Jun_29_1729,2-25_cond_decay_EYE-try,2021.2.3,165.6226477452708,
right,1.0,0.75,0,2,0,2,0,0,0,0,0,1,0,10,2,,,,,,,,,,,,,,,10s,1178.1024604980003,1179.1035341590004,1179.0968332660004,None,1180.0971700979999,1188.8915525210004,1180.0971700979999,1188.8915525210004,1188.8915525210004,None,1188.8915525210004,None,space,1188.8915525210004,None,8.7931,1189.4174636380003,None,0.3969553269998869,,,,,,,DEC008,001,2022_Jun_29_1729,2-25_cond_decay_EYE-try,2021.2.3,165.6226477452708,
left,0.75,1.0,0,2,0,2,0,0,0,0,0,1,1,11,6,,,,,,,,,,,,,,,10s,1190.478316156,1191.4789666759998,1191.46640579,None,1192.466609963999,1201.5753953189987,1192.466609963999,1201.5753953189987,1201.5753953189987,None,1201.5753953189987,None,None,1201.5753953189987,None,9.1067,1202.6975977110005,None,,,,,,,,DEC008,001,2022_Jun_29_1729,2-25_cond_decay_EYE-try,2021.2.3,165.6226477452708,
left,0.75,1.0,0,2,0,2,0,0,0,0,0,1,2,12,3,,,,,,,,,,,,,,,10s,1203.7564935639994,1204.7580665670002,1204.7454110890003,None,1205.7451682689998,1214.4422203120002,1205.7451682689998,1214.4422203120002,1214.4422203120002,None,1214.4422203120002,None,None,1214.4422203120002,None,8.694,1215.5618647269994,None,,,,,,,,DEC008,001,2022_Jun_29_1729,2-25_cond_decay_EYE-try,2021.2.3,165.6226477452708,
left,1.0,0.75,1,2,0,2,0,0,0,0,0,1,3,13,0,,,,,,,,,,,,,,,10s,1216.611837821999,1217.6124182129997,1217.6057166849996,None,1218.605748588,1228.4902572780002,1218.605748588,1228.4902572780002,1228.4902572780002,None,1228.4902572780002,None,space,1228.4902572780002,None,9.8831,1229.224182392999,None,0.5982795029995032,,,,,,,DEC008,001,2022_Jun_29_1729,2-25_cond_decay_EYE-try,2021.2.3,165.6226477452708,
right,1.0,0.75,0,2,0,2,0,0,0,0,0,1,4,14,9,,,,,,,,,,,,,,,10s,1230.277097661,1231.2781366049994,1231.2664542350003,None,1232.2660168979992,1234.7320747349995,1232.2660168979992,1234.7320747349995,1234.7251047709988,None,1234.7251047709988,None,None,1234.7251047709988,None,2.4564,1235.8487333459989,None,,,,,,,,DEC008,001,2022_Jun_29_1729,2-25_cond_decay_EYE-try,2021.2.3,165.6226477452708,
left,0.75,1.0,0,2,0,2,0,0,0,0,0,1,5,15,4,,,,,,,,,,,,,,,10s,1236.9071954349993,1237.9089822100004,1237.896793900999,None,1238.8960872199996,1240.6360912150003,1238.8960872199996,1240.6360912150003,1240.6360912150003,None,1240.6360912150003,None,space,1240.6360912150003,None,1.7407,1241.216868171,None,0.4364285689989629,,,,,,,DEC008,001,2022_Jun_29_1729,2-25_cond_decay_EYE-try,2021.2.3,165.6226477452708,
right,1.0,0.75,0,2,0,2,0,0,0,0,0,1,6,16,7,,,,,,,,,,,,,,,10s,1242.2708838480003,1243.2726297649997,1243.2606840649996,1246.9268681179992,1244.2666591320003,1245.9388962040002,1244.2666591320003,1245.9388962040002,1245.9321308970002,None,1245.9321308970002,None,None,1245.9321308970002,None,1.6654,1247.0590534499997,None,,,,,,,,DEC008,001,2022_Jun_29_1729,2-25_cond_decay_EYE-try,2021.2.3,165.6226477452708,
right,1.0,0.75,0,2,0,2,0,0,0,0,0,1,7,17,1,,,,,,,,,,,,,,,10s,1248.1132148779989,1249.1144333660004,1249.1021478039993,None,1250.1022699359992,1253.1263622550005,1250.1022699359992,1253.1263622550005,1253.1263622550005,None,1253.1263622550005,None,space,1253.1263622550005,None,3.0253,1253.598307403,None,0.3381631379997998,,,,,,,DEC008,001,2022_Jun_29_1729,2-25_cond_decay_EYE-try,2021.2.3,165.6226477452708,
right,0.75,1.0,1,2,0,2,0,0,0,0,0,1,8,18,8,,,,,,,,,,,,,,,10s,1254.6465681849995,1255.6478165649996,1255.6421920099992,None,1256.641363243999,1264.7991325350004,1256.641363243999,1264.7991325350004,1264.7925358889997,None,1264.7925358889997,None,space,1264.7925358889997,None,8.1507,1265.3127823389996,None,0.3839645800017024,,,,,,,DEC008,001,2022_Jun_29_1729,2-25_cond_decay_EYE-try,2021.2.3,165.6226477452708,
left,0.75,1.0,0,2,0,2,0,0,0,0,0,1,9,19,5,,,,,,,,,,,,,,,10s,1266.3674663560005,1267.3688757779992,1267.3566922319997,None,1268.357058647999,1270.1927567470002,1268.357058647999,1270.1927567470002,1270.1927567470002,None,1270.1927567470002,None,space,1270.1927567470002,None,1.8372,1270.7125470389992,None,0.3838260319989786,,,,,,,DEC008,001,2022_Jun_29_1729,2-25_cond_decay_EYE-try,2021.2.3,165.6226477452708,
,,,,2,0,2,0,0,0,0,0,,,,,,,,,,,,,,,,,,,,,,,,,,,,,,,,,,,,,,,,,,,,,DEC008,001,2022_Jun_29_1729,2-25_cond_decay_EYE-try,2021.2.3,165.6226477452708,
left,0.75,1.0,0,2,0,2,0,1,0,1,0,0,0,0,0,,,,,,,,,1271.6057331210004,None,1271.6057331210004,None,1271.6057331210004,None,5s,1274.6037365879993,1275.605426444,1275.592851647999,None,1276.5935534299997,1279.556422528999,1276.5935534299997,1279.556422528999,1279.556422528999,None,1279.556422528999,None,space,1279.556422528999,None,2.9597,1280.0888334,None,0.3960874630010949,,,,,,,DEC008,001,2022_Jun_29_1729,2-25_cond_decay_EYE-try,2021.2.3,165.6226477452708,
right,1.0,0.75,0,2,0,2,0,1,0,1,0,0,1,1,7,,,,,,,,,,,,,,,5s,1281.1496185530004,1282.1503686160004,1282.138131908,None,1283.13898368,1284.047382456999,1283.13898368,1284.047382456999,1284.040608754999,None,1284.040608754999,None,space,1284.040608754999,None,0.8995,1284.6098687530002,None,0.43192792600166285,,,,,,,DEC008,001,2022_Jun_29_1729,2-25_cond_decay_EYE-try,2021.2.3,165.6226477452708,
right,1.0,0.75,0,2,0,2,0,1,0,1,0,0,2,2,2,,,,,,,,,,,,,,,5s,1285.664784226,1286.665639415999,1286.6597833080004,None,1287.6592071000005,1292.1972033880002,1287.6592071000005,1292.1972033880002,1292.1915164979991,None,1292.1915164979991,None,space,1292.1915164979991,None,4.531,1292.6962543159998,None,0.37702707999960694,,,,,,,DEC008,001,2022_Jun_29_1729,2-25_cond_decay_EYE-try,2021.2.3,165.6226477452708,
right,0.75,1.0,1,2,0,2,0,1,0,1,0,0,3,3,5,,,,,,,,,,,,,,,5s,1293.7434646449992,1294.7449265349996,1294.7378923749993,None,1295.7380948540003,1296.968813475999,1295.7380948540003,1296.968813475999,1296.968813475999,None,1296.968813475999,None,space,1296.968813475999,None,1.2304,1297.5366184240002,None,0.4317098920000717,,,,,,,DEC008,001,2022_Jun_29_1729,2-25_cond_decay_EYE-try,2021.2.3,165.6226477452708,
left,0.75,1.0,0,2,0,2,0,1,0,1,0,0,4,4,3,,,,,,,,,,,,,,,5s,1298.6033709829999,1299.6050476970004,1299.5926040929999,None,1300.5929607999997,1302.0889563859992,1300.5929607999997,1302.0889563859992,1302.0822148849993,None,1302.0822148849993,None,space,1302.0822148849993,None,1.486,1302.5980987379999,None,0.3823830420005834,,,,,,,DEC008,001,2022_Jun_29_1729,2-25_cond_decay_EYE-try,2021.2.3,165.6226477452708,
left,0.75,1.0,0,2,0,2,0,1,0,1,0,0,5,5,1,,,,,,,,,,,,,,,5s,1303.640807441,1304.6407433579998,1304.6348679470002,None,1305.6354344660003,1307.543444242,1305.6354344660003,1307.543444242,1307.5365302069995,None,1307.5365302069995,None,space,1307.5365302069995,None,1.8985,1308.0902850560005,None,0.4239867099986441,,,,,,,DEC008,001,2022_Jun_29_1729,2-25_cond_decay_EYE-try,2021.2.3,165.6226477452708,
left,1.0,0.75,1,2,0,2,0,1,0,1,0,0,6,6,8,,,,,,,,,,,,,,,5s,1309.1447211509994,1310.1438403109996,1310.1438403109996,None,1311.1437730469997,1314.1565893769994,1311.1437730469997,1314.1565893769994,1314.1565893769994,None,1314.1565893769994,None,space,1314.1565893769994,None,3.0128,1314.6891216020003,None,0.4040101379996486,,,,,,,DEC008,001,2022_Jun_29_1729,2-25_cond_decay_EYE-try,2021.2.3,165.6226477452708,
right,1.0,0.75,0,2,0,2,0,1,0,1,0,0,7,7,6,,,,,,,,,,,,,,,5s,1315.7431906289994,1316.7439889549996,1316.7315731939989,None,1317.731544543999,1321.0224221849994,1317.731544543999,1321.0224221849994,1321.0224221849994,None,1321.0224221849994,None,space,1321.0224221849994,None,3.2879,1321.5383702280005,None,0.38612289000047895,,,,,,,DEC008,001,2022_Jun_29_1729,2-25_cond_decay_EYE-try,2021.2.3,165.6226477452708,
left,0.75,1.0,0,2,0,2,0,1,0,1,0,0,8,8,4,,,,,,,,,,,,,,,5s,1322.5910165719988,1323.5925841220005,1323.5800348000002,None,1324.5806507949992,1325.8892678009988,1324.5806507949992,1325.8892678009988,1325.8892678009988,None,1325.8892678009988,None,space,1325.8892678009988,None,1.3074,1326.410201476,None,0.3912573239995254,,,,,,,DEC008,001,2022_Jun_29_1729,2-25_cond_decay_EYE-try,2021.2.3,165.6226477452708,
left,0.75,1.0,0,2,0,2,0,1,0,1,0,0,9,9,9,,,,,,,,,,,,,,,5s,1327.469797548999,1328.4708854169994,1328.4651497200002,None,1329.4650022349988,1334.367660990999,1329.4650022349988,1334.367660990999,1334.367660990999,None,1334.367660990999,None,space,1334.367660990999,None,4.904,1334.9120244430005,None,0.408855179000966,,,,,,,DEC008,001,2022_Jun_29_1729,2-25_cond_decay_EYE-try,2021.2.3,165.6226477452708,
right,0.75,1.0,1,2,0,2,0,1,0,1,0,1,0,10,5,,,,,,,,,,,,,,,5s,1335.967184095999,1336.9685893359992,1336.9558040069996,None,1337.955849289,1341.956251667999,1337.955849289,1341.956251667999,1341.956251667999,None,1341.956251667999,None,space,1341.956251667999,None,3.9991,1342.4402276449991,None,0.34827468100047554,,,,,,,DEC008,001,2022_Jun_29_1729,2-25_cond_decay_EYE-try,2021.2.3,165.6226477452708,
right,1.0,0.75,0,2,0,2,0,1,0,1,0,1,1,11,2,,,,,,,,,,,,,,,5s,1343.493970048,1344.4949673059991,1344.4826685359994,None,1345.4836331889992,1346.573212455999,1345.4836331889992,1346.573212455999,1346.5663157019999,None,1346.5663157019999,None,space,1346.5663157019999,None,1.0813,1347.3423897479997,None,0.6422149119989626,,,,,,,DEC008,001,2022_Jun_29_1729,2-25_cond_decay_EYE-try,2021.2.3,165.6226477452708,
right,1.0,0.75,0,2,0,2,0,1,0,1,0,1,2,12,7,,,,,,,,,,,,,,,5s,1348.3927869579993,1349.3984892969993,1349.3919242429993,None,1350.385837470999,1350.5433110000004,1350.385837470999,1350.5433110000004,1350.5433110000004,None,1350.5433110000004,None,space,1350.5433110000004,None,0.1544,1351.0634071489994,None,0.38529138899866666,,,,,,,DEC008,001,2022_Jun_29_1729,2-25_cond_decay_EYE-try,2021.2.3,165.6226477452708,
left,0.75,1.0,0,2,0,2,0,1,0,1,0,1,3,13,9,,,,,,,,,,,,,,,5s,1352.1260195200002,1353.1255386359999,1353.1198685110003,None,1354.1195108660004,1358.6095009779992,1354.1195108660004,1358.6095009779992,1358.602617911999,None,1358.602617911999,None,space,1358.602617911999,None,4.4819,1359.033165472999,None,0.3019144240006426,,,,,,,DEC008,001,2022_Jun_29_1729,2-25_cond_decay_EYE-try,2021.2.3,165.6226477452708,
left,0.75,1.0,0,2,0,2,0,1,0,1,0,1,4,14,1,,,,,,,,,,,,,,,5s,1360.0883472899995,1361.0892812880002,1361.082460818,None,1362.0831223309988,1362.458242530999,1362.0831223309988,1362.458242530999,1362.458242530999,None,1362.458242530999,None,space,1362.458242530999,None,0.3761,1362.9116571650002,None,0.32628571999885025,,,,,,,DEC008,001,2022_Jun_29_1729,2-25_cond_decay_EYE-try,2021.2.3,165.6226477452708,
right,1.0,0.75,0,2,0,2,0,1,0,1,0,1,5,15,6,,,,,,,,,,,,,,,5s,1363.9722923319996,1364.9734138100002,1364.9613257640003,None,1365.9612105549995,1370.597677629,1365.9612105549995,1370.597677629,1370.597677629,None,1370.597677629,None,space,1370.597677629,None,4.6325,1371.0581759810002,None,0.33083462200011127,,,,,,,DEC008,001,2022_Jun_29_1729,2-25_cond_decay_EYE-try,2021.2.3,165.6226477452708,
left,1.0,0.75,1,2,0,2,0,1,0,1,0,1,6,16,8,,,,,,,,,,,,,,,5s,1372.1118635089997,1373.113279753,1373.106493835,None,1374.107149598999,1374.585137174,1374.107149598999,1374.585137174,1374.5782670090002,None,1374.5782670090002,None,space,1374.5782670090002,None,0.4722,1375.021289755,None,0.31026517799909925,,,,,,,DEC008,001,2022_Jun_29_1729,2-25_cond_decay_EYE-try,2021.2.3,165.6226477452708,
left,0.75,1.0,0,2,0,2,0,1,0,1,0,1,7,17,3,,,,,,,,,,,,,,,5s,1376.0707630859988,1377.0702384909991,1377.0642423420004,None,1378.0642675379995,1382.7011527059994,1378.0642675379995,1382.7011527059994,1382.7011527059994,None,1382.7011527059994,None,space,1382.7011527059994,None,4.635,1383.1841876249991,None,0.3473814230001153,,,,,,,DEC008,001,2022_Jun_29_1729,2-25_cond_decay_EYE-try,2021.2.3,165.6226477452708,
right,1.0,0.75,0,2,0,2,0,1,0,1,0,1,8,18,0,,,,,,,,,,,,,,,5s,1384.245182447,1385.2466382369994,1385.2345399359992,None,1386.2343229939988,1387.2400166319994,1386.2343229939988,1387.2400166319994,1387.2400166319994,None,1387.2400166319994,None,space,1387.2400166319994,None,1.0047,1387.7909526649992,None,0.4166041869993933,,,,,,,DEC008,001,2022_Jun_29_1729,2-25_cond_decay_EYE-try,2021.2.3,165.6226477452708,
left,0.75,1.0,0,2,0,2,0,1,0,1,0,1,9,19,4,,,,,,,,,,,,,,,5s,1388.845520209,1389.8458704599989,1389.8344837319992,None,1390.839910403999,1391.052198495,1390.839910403999,1391.052198495,1391.045528145999,None,1391.045528145999,None,space,1391.045528145999,None,0.2025,1391.4090175249994,None,0.22698681499969098,,,,,,,DEC008,001,2022_Jun_29_1729,2-25_cond_decay_EYE-try,2021.2.3,165.6226477452708,
,,,,2,0,2,0,1,0,1,0,,,,,,,,,,,,,,,,,,,,,,,,,,,,,,,,,,,,,,,,,,,,,DEC008,001,2022_Jun_29_1729,2-25_cond_decay_EYE-try,2021.2.3,165.6226477452708,
right,0.75,1.0,1,2,0,2,0,2,0,2,0,0,0,0,9,,,,,,,,,1392.300841788,None,1392.300841788,None,1392.300841788,None,1s,1396.911233640999,1397.9131916409997,1397.9007943019997,None,1398.9009223959993,1399.451121007999,1398.9009223959993,1399.451121007999,1399.451121007999,None,1399.451121007999,None,space,1399.451121007999,None,0.5465,1400.5072580450005,None,0.9174037949997,,,,,,,DEC008,001,2022_Jun_29_1729,2-25_cond_decay_EYE-try,2021.2.3,165.6226477452708,
right,1.0,0.75,0,2,0,2,0,2,0,2,0,0,1,1,0,,,,,,,,,,,,,,,1s,1401.5600039399988,1402.5610161529994,1402.555238734999,None,1403.554841442,1404.409329055,1403.554841442,1404.409329055,1404.4027102819991,None,1404.4027102819991,None,space,1404.4027102819991,None,0.8444,1404.7906860859994,None,0.25382912299937743,,,,,,,DEC008,001,2022_Jun_29_1729,2-25_cond_decay_EYE-try,2021.2.3,165.6226477452708,
right,0.75,1.0,1,2,0,2,0,2,0,2,0,0,2,2,3,,,,,,,,,,,,,,,1s,1405.8402105449995,1406.839626558999,1406.8338320909997,None,1407.839017842999,1408.8335159169992,1407.839017842999,1408.8335159169992,1408.8263938070004,None,1408.8263938070004,None,space,1408.8263938070004,None,0.987,1409.2508120749999,None,0.28613595299975714,,,,,,,DEC008,001,2022_Jun_29_1729,2-25_cond_decay_EYE-try,2021.2.3,165.6226477452708,
right,1.0,0.75,0,2,0,2,0,2,0,2,0,0,3,3,5,,,,,,,,,,,,,,,1s,1410.3051951440002,1411.3062301569998,1411.3004198939989,None,1412.300671660999,1412.6261898809998,1412.300671660999,1412.6261898809998,1412.6203989439991,None,1412.6203989439991,None,space,1412.6203989439991,None,0.3172,1413.056925333999,None,0.3001245480008947,,,,,,,DEC008,001,2022_Jun_29_1729,2-25_cond_decay_EYE-try,2021.2.3,165.6226477452708,
left,0.75,1.0,0,2,0,2,0,2,0,2,0,0,4,4,2,,,,,,,,,,,,,,,1s,1414.117259702999,1415.1189210639996,1415.1065972299994,None,1416.1068119639995,1416.669865072,1416.1068119639995,1416.669865072,1416.6764606339993,None,1416.6764606339993,None,space,1416.6764606339993,None,0.5645,1417.3900514379993,None,0.5800648719996389,,,,,,,DEC008,001,2022_Jun_29_1729,2-25_cond_decay_EYE-try,2021.2.3,165.6226477452708,
left,0.75,1.0,0,2,0,2,0,2,0,2,0,0,5,5,7,,,,,,,,,,,,,,,1s,1418.4401837550004,1419.440280890999,1419.433275331,None,1420.433216946999,1421.3485345239997,1420.433216946999,1421.3485345239997,1421.3485345239997,None,1421.3485345239997,None,space,1421.3485345239997,None,0.9113,1421.7050407319994,None,0.21999449500071933,,,,,,,DEC008,001,2022_Jun_29_1729,2-25_cond_decay_EYE-try,2021.2.3,165.6226477452708,
right,1.0,0.75,0,2,0,2,0,2,0,2,0,0,6,6,1,,,,,,,,,,,,,,,1s,1422.7660010619993,1423.7670480530005,1423.7607069739997,None,1424.754741632999,1425.6454473969998,1424.754741632999,1425.6454473969998,1425.6454473969998,None,1425.6454473969998,None,space,1425.6454473969998,None,0.8871,1425.953170283,None,0.1710711640007503,,,,,,,DEC008,001,2022_Jun_29_1729,2-25_cond_decay_EYE-try,2021.2.3,165.6226477452708,
left,1.0,0.75,1,2,0,2,0,2,0,2,0,0,7,7,8,,,,,,,,,,,,,,,1s,1427.01427332,1428.0158735759987,1428.0033313569993,None,1429.0029503020005,1429.8337201309996,1429.0029503020005,1429.8337201309996,1429.8337201309996,None,1429.8337201309996,None,space,1429.8337201309996,None,0.8268,1430.057868494,None,0.09488408299876028,,,,,,,DEC008,001,2022_Jun_29_1729,2-25_cond_decay_EYE-try,2021.2.3,165.6226477452708,
right,1.0,0.75,0,2,0,2,0,2,0,2,0,0,8,8,6,,,,,,,,,,,,,,,1s,1431.117614804999,1432.1182411210002,1432.112517646,None,1433.1128060319998,1433.8455363780004,1433.1128060319998,1433.8455363780004,1433.8387430289995,None,1433.8387430289995,None,space,1433.8387430289995,None,0.7239,1434.317495409,None,0.34578193699962867,,,,,,,DEC008,001,2022_Jun_29_1729,2-25_cond_decay_EYE-try,2021.2.3,165.6226477452708,
left,0.75,1.0,0,2,0,2,0,2,0,2,0,0,9,9,4,,,,,,,,,,,,,,,1s,1435.3720111079992,1436.373144999,1436.360424394,None,1437.360507421,1437.8034286350003,1437.360507421,1437.8034286350003,1437.8034286350003,None,1437.8034286350003,None,space,1437.8034286350003,None,0.4402,1438.2994088650003,None,0.35710408100021596,,,,,,,DEC008,001,2022_Jun_29_1729,2-25_cond_decay_EYE-try,2021.2.3,165.6226477452708,
right,0.75,1.0,1,2,0,2,0,2,0,2,0,1,0,10,3,,,,,,,,,,,,,,,1s,1439.359944592,1440.3607200739998,1440.354790069,None,1441.3546580489992,1442.1427218729996,1441.3546580489992,1442.1427218729996,1442.1427218729996,None,1442.1427218729996,None,space,1442.1427218729996,None,0.7875,1442.589396294,None,0.3138925269995525,,,,,,,DEC008,001,2022_Jun_29_1729,2-25_cond_decay_EYE-try,2021.2.3,165.6226477452708,
right,1.0,0.75,0,2,0,2,0,2,0,2,0,1,1,11,0,,,,,,,,,,,,,,,1s,1443.6378560499988,1444.6391944279994,1444.6271605929987,None,1445.6330279149997,1446.3901902869993,1445.6330279149997,1446.3901902869993,1446.383376454999,None,1446.383376454999,None,space,1446.383376454999,None,0.75,1446.808489959999,None,0.2971621189990401,,,,,,,DEC008,001,2022_Jun_29_1729,2-25_cond_decay_EYE-try,2021.2.3,165.6226477452708,
left,0.75,1.0,0,2,0,2,0,2,0,2,0,1,2,12,9,,,,,,,,,,,,,,,1s,1447.8644148449994,1448.863379554,1448.8579017229995,None,1449.8573187560005,1450.1960806799989,1449.8573187560005,1450.1960806799989,1450.1894545289988,None,1450.1894545289988,None,space,1450.1894545289988,None,0.3301,1450.6807419890001,None,0.3550775209987478,,,,,,,DEC008,001,2022_Jun_29_1729,2-25_cond_decay_EYE-try,2021.2.3,165.6226477452708,
right,1.0,0.75,0,2,0,2,0,2,0,2,0,1,3,13,1,,,,,,,,,,,,,,,1s,1451.7413553879987,1452.7423801779996,1452.730515459999,None,1453.730733497,1454.602789698999,1453.730733497,1454.602789698999,1454.602789698999,None,1454.602789698999,None,space,1454.602789698999,None,0.8733,1455.0505102550005,None,0.3097453489990585,,,,,,,DEC008,001,2022_Jun_29_1729,2-25_cond_decay_EYE-try,2021.2.3,165.6226477452708,
left,1.0,0.75,1,2,0,2,0,2,0,2,0,1,4,14,8,,,,,,,,,,,,,,,1s,1456.1113815809995,1457.1123474080005,1457.0999824130004,None,1458.0995678259997,1458.2695429189998,1458.0995678259997,1458.2695429189998,1458.2695429189998,None,1458.2695429189998,None,None,1458.2695429189998,None,0.1677,1459.395375863999,None,,,,,,,,DEC008,001,2022_Jun_29_1729,2-25_cond_decay_EYE-try,2021.2.3,165.6226477452708,
left,0.75,1.0,0,2,0,2,0,2,0,2,0,1,5,15,2,,,,,,,,,,,,,,,1s,1460.439575248999,1461.4388906649992,1461.4329399650005,None,1462.4330564019992,1463.372442388999,1462.4330564019992,1463.372442388999,1463.372442388999,None,1463.372442388999,None,space,1463.372442388999,None,0.935,1463.7911893110004,None,0.28412163800021517,,,,,,,DEC008,001,2022_Jun_29_1729,2-25_cond_decay_EYE-try,2021.2.3,165.6226477452708,
right,1.0,0.75,0,2,0,2,0,2,0,2,0,1,6,16,6,,,,,,,,,,,,,,,1s,1464.8442342280005,1465.845096164,1465.8392706759996,None,1466.8396347070002,1467.1832828289998,1466.8396347070002,1467.1832828289998,1467.1775478539994,None,1467.1775478539994,None,space,1467.1775478539994,None,0.3361,1467.6497841579994,None,0.3350501290005923,,,,,,,DEC008,001,2022_Jun_29_1729,2-25_cond_decay_EYE-try,2021.2.3,165.6226477452708,
right,1.0,0.75,0,2,0,2,0,2,0,2,0,1,7,17,5,,,,,,,,,,,,,,,1s,1468.7110612839997,1469.7113829199998,1469.705574998,None,1470.706294519,1471.1789415739995,1470.706294519,1471.1789415739995,1471.1789415739995,None,1471.1789415739995,None,space,1471.1789415739995,None,0.4732,1471.5601190030002,None,0.25366887699965446,,,,,,,DEC008,001,2022_Jun_29_1729,2-25_cond_decay_EYE-try,2021.2.3,165.6226477452708,
left,0.75,1.0,0,2,0,2,0,2,0,2,0,1,8,18,4,,,,,,,,,,,,,,,1s,1472.61965589,1473.6207511509992,1473.6091373320005,None,1474.6086558050001,1475.1908868649998,1474.6086558050001,1475.1908868649998,1475.1908868649998,None,1475.1908868649998,None,space,1475.1908868649998,None,0.579,1475.6513191299991,None,0.3297204749997036,,,,,,,DEC008,001,2022_Jun_29_1729,2-25_cond_decay_EYE-try,2021.2.3,165.6226477452708,
left,0.75,1.0,0,2,0,2,0,2,0,2,0,1,9,19,7,,,,,,,,,,,,,,,1s,1476.7059820780005,1477.705936342999,1477.6996949169998,None,1478.699976204999,1479.5842876699999,1478.699976204999,1479.5842876699999,1479.5842876699999,None,1479.5842876699999,None,space,1479.5842876699999,None,0.8836,1479.977038083999,None,0.25625677599964547,,,,,,,DEC008,001,2022_Jun_29_1729,2-25_cond_decay_EYE-try,2021.2.3,165.6226477452708,
,,,,2,0,2,0,2,0,2,0,,,,,,,,,,,,,,,,,,,,,,,,,,,,,,,,,,,,,,,,,,,,,DEC008,001,2022_Jun_29_1729,2-25_cond_decay_EYE-try,2021.2.3,165.6226477452708,
left,0.75,1.0,0,2,0,2,0,3,0,3,0,0,0,0,1,,,,,,,,,1480.8698224150003,None,1480.8698224150003,None,1480.8698224150003,None,3s,1483.4566202449996,1484.4572465890005,1484.4455803129995,None,1485.4455439399999,1486.6455608299993,1485.4455439399999,1486.6455608299993,1486.6455608299993,None,1486.6455608299993,None,space,1486.6455608299993,None,1.1985,1487.1769161869988,None,0.3949757970003702,,,,,,,DEC008,001,2022_Jun_29_1729,2-25_cond_decay_EYE-try,2021.2.3,165.6226477452708,
left,0.75,1.0,0,2,0,2,0,3,0,3,0,0,1,1,8,,,,,,,,,,,,,,,3s,1488.2315397430002,1489.2332994220005,1489.227289379999,None,1490.227058039999,1491.996198689999,1490.227058039999,1491.996198689999,1491.996198689999,None,1491.996198689999,None,space,1491.996198689999,None,1.7674,1492.4992096140004,None,0.37233804099923873,,,,,,,DEC008,001,2022_Jun_29_1729,2-25_cond_decay_EYE-try,2021.2.3,165.6226477452708,
left,0.75,1.0,0,2,0,2,0,3,0,3,0,0,2,2,5,,,,,,,,,,,,,,,3s,1493.5586669489994,1494.5598037499994,1494.5482082110002,None,1495.548092037,1497.9783910349988,1495.548092037,1497.9783910349988,1497.9726337809998,None,1497.9726337809998,None,space,1497.9726337809998,None,2.4262,1498.4010733379992,None,0.29189891399983026,,,,,,,DEC008,001,2022_Jun_29_1729,2-25_cond_decay_EYE-try,2021.2.3,165.6226477452708,
right,0.75,1.0,1,2,0,2,0,3,0,3,0,0,3,3,4,,,,,,,,,,,,,,,3s,1499.4617459289993,1500.4633534769991,1500.4512786589994,None,1501.4506602030006,1503.6088521539996,1501.4506602030006,1503.6088521539996,1503.6088521539996,None,1503.6088521539996,None,space,1503.6088521539996,None,2.1548,1504.1042889769988,None,0.3596865979998256,,,,,,,DEC008,001,2022_Jun_29_1729,2-25_cond_decay_EYE-try,2021.2.3,165.6226477452708,
right,1.0,0.75,0,2,0,2,0,3,0,3,0,0,4,4,2,,,,,,,,,,,,,,,3s,1505.1589187250001,1506.1601531009992,1506.1479227209993,None,1507.1480688229994,1509.8937354790005,1507.1480688229994,1509.8937354790005,1509.8937354790005,None,1509.8937354790005,None,space,1509.8937354790005,None,2.7434,1510.3889647329988,None,0.3628878330000589,,,,,,,DEC008,001,2022_Jun_29_1729,2-25_cond_decay_EYE-try,2021.2.3,165.6226477452708,
right,1.0,0.75,0,2,0,2,0,3,0,3,0,0,5,5,3,,,,,,,,,,,,,,,3s,1511.444167225999,1512.4447306029988,1512.4324681049993,None,1513.4393634460002,1514.3767322869999,1513.4393634460002,1514.3767322869999,1514.3767322869999,None,1514.3767322869999,None,space,1514.3767322869999,None,0.9329,1515.0257283990004,None,0.519818751999992,,,,,,,DEC008,001,2022_Jun_29_1729,2-25_cond_decay_EYE-try,2021.2.3,165.6226477452708,
left,0.75,1.0,0,2,0,2,0,3,0,3,0,0,6,6,9,,,,,,,,,,,,,,,3s,1516.0860998859998,1517.0874561800001,1517.0748145089992,None,1518.0749493470003,1520.1588137609988,1518.0749493470003,1520.1588137609988,1520.1520481300004,None,1520.1520481300004,None,space,1520.1520481300004,None,2.0747,1520.655676198,None,0.36849906200041005,,,,,,,DEC008,001,2022_Jun_29_1729,2-25_cond_decay_EYE-try,2021.2.3,165.6226477452708,
right,1.0,0.75,0,2,0,2,0,3,0,3,0,0,7,7,6,,,,,,,,,,,,,,,3s,1521.7104083160002,1522.7110415519992,1522.7051727520002,None,1523.705178072999,1524.638294714,1523.705178072999,1524.638294714,1524.638294714,None,1524.638294714,None,space,1524.638294714,None,0.9336,1525.0993612789998,None,0.3303251209999871,,,,,,,DEC008,001,2022_Jun_29_1729,2-25_cond_decay_EYE-try,2021.2.3,165.6226477452708,
left,0.75,1.0,0,2,0,2,0,3,0,3,0,0,8,8,0,,,,,,,,,,,,,,,3s,1526.1521900019989,1527.1533530650004,1527.1420283460002,None,1528.141263041999,1530.2980953649994,1528.141263041999,1530.2980953649994,1530.2913339769993,None,1530.2913339769993,None,space,1530.2913339769993,None,2.1476,1530.752300576999,None,0.3252231610003946,,,,,,,DEC008,001,2022_Jun_29_1729,2-25_cond_decay_EYE-try,2021.2.3,165.6226477452708,
left,1.0,0.75,1,2,0,2,0,3,0,3,0,0,9,9,7,,,,,,,,,,,,,,,3s,1531.807053518999,1532.8077544509988,1532.8018854020002,None,1533.801842201,1534.1652631730003,1533.801842201,1534.1652631730003,1534.1652631730003,None,1534.1652631730003,None,space,1534.1652631730003,None,0.3645,1534.6730417919998,None,0.3712850960000651,,,,,,,DEC008,001,2022_Jun_29_1729,2-25_cond_decay_EYE-try,2021.2.3,165.6226477452708,
right,1.0,0.75,0,2,0,2,0,3,0,3,0,1,0,10,1,,,,,,,,,,,,,,,3s,1535.727599416,1536.7289036409993,1536.717640886999,None,1537.7171779289993,1538.8619517289999,1537.7171779289993,1538.8619517289999,1538.8549759669995,None,1538.8549759669995,None,space,1538.8549759669995,None,1.135,1539.327682242999,None,0.337565468998946,,,,,,,DEC008,001,2022_Jun_29_1729,2-25_cond_decay_EYE-try,2021.2.3,165.6226477452708,
right,1.0,0.75,0,2,0,2,0,3,0,3,0,1,1,11,6,,,,,,,,,,,,,,,3s,1540.3765678369991,1541.3774499479996,1541.3721924749998,None,1542.3717637559994,1544.8683803939994,1542.3717637559994,1544.8683803939994,1544.861589559,None,1544.861589559,None,None,1544.861589559,None,2.4864,1545.9842234059988,None,,,,,,,,DEC008,001,2022_Jun_29_1729,2-25_cond_decay_EYE-try,2021.2.3,165.6226477452708,
left,0.75,1.0,0,2,0,2,0,3,0,3,0,1,2,12,9,,,,,,,,,,,,,,,3s,1547.0371773769994,1548.038580051999,1548.032532327,None,1549.0320201219993,1551.1767495960003,1549.0320201219993,1551.1767495960003,1551.169816404,None,1551.169816404,None,space,1551.169816404,None,2.1372,1551.6614659140005,None,0.3587363879996701,,,,,,,DEC008,001,2022_Jun_29_1729,2-25_cond_decay_EYE-try,2021.2.3,165.6226477452708,
right,1.0,0.75,0,2,0,2,0,3,0,3,0,1,3,13,3,,,,,,,,,,,,,,,3s,1552.716400799999,1553.7168332899992,1553.7109499280004,None,1554.710978303,1555.5165407289996,1554.710978303,1555.5165407289996,1555.5165407289996,None,1555.5165407289996,None,space,1555.5165407289996,None,0.8065,1555.9465355059992,None,0.2920784279995132,,,,,,,DEC008,001,2022_Jun_29_1729,2-25_cond_decay_EYE-try,2021.2.3,165.6226477452708,
left,1.0,0.75,1,2,0,2,0,3,0,3,0,1,4,14,7,,,,,,,,,,,,,,,3s,1557.0063768339996,1558.0078979239997,1557.9962795749989,None,1558.9953510000005,1560.7166057749992,1558.9953510000005,1560.7166057749992,1560.7166057749992,None,1560.7166057749992,None,space,1560.7166057749992,None,1.7173,1561.1524661089998,None,0.29993780899894773,,,,,,,DEC008,001,2022_Jun_29_1729,2-25_cond_decay_EYE-try,2021.2.3,165.6226477452708,
left,0.75,1.0,0,2,0,2,0,3,0,3,0,1,5,15,5,,,,,,,,,,,,,,,3s,1562.2002330019995,1563.2023263029996,1563.1953126870003,None,1564.1957409569995,1566.982380516999,1564.1957409569995,1566.982380516999,1566.975818631,None,1566.975818631,None,space,1566.975818631,None,2.779,1567.431123882,None,0.3207327689997328,,,,,,,DEC008,001,2022_Jun_29_1729,2-25_cond_decay_EYE-try,2021.2.3,165.6226477452708,
left,0.75,1.0,0,2,0,2,0,3,0,3,0,1,6,16,8,,,,,,,,,,,,,,,3s,1568.4796392509988,1569.4804747829994,1569.4680077980001,None,1570.4686417509993,1570.9895255559995,1570.4686417509993,1570.9895255559995,1570.9895255559995,None,1570.9895255559995,None,space,1570.9895255559995,None,0.5175,1571.4810575990005,None,0.3630155319988262,,,,,,,DEC008,001,2022_Jun_29_1729,2-25_cond_decay_EYE-try,2021.2.3,165.6226477452708,
right,1.0,0.75,0,2,0,2,0,3,0,3,0,1,7,17,2,,,,,,,,,,,,,,,3s,1572.53952114,1573.541322987,1573.5291326569995,None,1574.529365583,1575.534567456999,1574.529365583,1575.534567456999,1575.534567456999,None,1575.534567456999,None,space,1575.534567456999,None,1.0064,1576.002045929,None,0.33805550999932166,,,,,,,DEC008,001,2022_Jun_29_1729,2-25_cond_decay_EYE-try,2021.2.3,165.6226477452708,
left,0.75,1.0,0,2,0,2,0,3,0,3,0,1,8,18,0,,,,,,,,,,,,,,,3s,1577.0603715730003,1578.0617113119997,1578.0500019829988,None,1579.0498177990003,1582.0547218519996,1579.0498177990003,1582.0547218519996,1582.048414684,None,1582.048414684,None,space,1582.048414684,None,2.9961,1582.5035676099988,None,0.3201329639996402,,,,,,,DEC008,001,2022_Jun_29_1729,2-25_cond_decay_EYE-try,2021.2.3,165.6226477452708,
right,0.75,1.0,1,2,0,2,0,3,0,3,0,1,9,19,4,,,,,,,,,,,,,,,3s,1583.557847183999,1584.5586457050003,1584.546878226999,None,1585.5471040429993,1587.546475492999,1585.5471040429993,1587.546475492999,1587.546475492999,None,1587.546475492999,None,space,1587.546475492999,None,2.0002,1588.1218987019993,None,0.43808193800032313,,,,,,,DEC008,001,2022_Jun_29_1729,2-25_cond_decay_EYE-try,2021.2.3,165.6226477452708,
,,,,2,0,2,0,3,0,3,0,,,,,,,,,,,,,,,,,,,,,,,,,,,,,,,,,,,,,,,,,,,,,DEC008,001,2022_Jun_29_1729,2-25_cond_decay_EYE-try,2021.2.3,165.6226477452708,
,,,,2,0,2,0,,,,,,,,,,,,,,,,,,,,,,,,,,,,,,,,,,,,,,,,,,,1589.0132653809987,None,1589.0132653809987,None,1589.0132653809987,None,DEC008,001,2022_Jun_29_1729,2-25_cond_decay_EYE-try,2021.2.3,165.6226477452708,
