attn_cue,left_ob,right_ob,congruent,runs.thisRepN,runs.thisTrialN,runs.thisN,runs.thisIndex,blocks.thisRepN,blocks.thisTrialN,blocks.thisN,blocks.thisIndex,trials.thisRepN,trials.thisTrialN,trials.thisN,trials.thisIndex,welcome.started,welcome.stopped,text_2.started,text_2.stopped,init_key_resp.keys,init_key_resp.rt,init_key_resp.started,init_key_resp.stopped,text_3.started,text_3.stopped,text_4.started,text_4.stopped,text_5.started,text_5.stopped,block_num,texter.started,texter.stopped,cross.started,cross.stopped,left_star.started,left_star.stopped,right_star.started,right_star.stopped,left_2.started,left_2.stopped,right_2.started,right_2.stopped,key_resp.keys,key_resp.rt,key_resp.started,key_resp.stopped,Rand Tim,text.started,text.stopped,end.started,end.stopped,text_6.started,text_6.stopped,text_7.started,text_7.stopped,participant,session,date,expName,psychopyVersion,frameRate,
,,,,,,,,,,,,,,,,118.33548724290449,None,118.33548724290449,None,space,6.295826761052012,118.33548724290449,None,,,,,,,,,,,,,,,,,,,,,,,,,,,,,,,,,DEC017,001,2022_Nov_02_1439,2-25_cond_decay_EYE-try,2021.2.3,120.50999206878282,
left,0.75,1.0,0,0,0,0,0,0,0,0,0,0,0,0,1,,,,,,,,,124.65234055998735,None,124.65234055998735,None,124.65234055998735,None,5s,129.74426833400503,130.74590242595877,130.7374381389236,None,131.73693328595255,133.99505539797246,131.73693328595255,133.99505539797246,133.98715683992486,None,133.98715683992486,None,space,0.4768527599517256,133.98715683992486,None,2.2511,134.60248685698025,None,,,,,,,DEC017,001,2022_Nov_02_1439,2-25_cond_decay_EYE-try,2021.2.3,120.50999206878282,
left,0.75,1.0,0,0,0,0,0,0,0,0,0,0,1,1,7,,,,,,,,,,,,,,,5s,135.64443252095953,136.64515893894713,136.63703007891309,None,137.637170104892,140.42064886190929,137.637170104892,140.42064886190929,140.4120626039803,None,140.4120626039803,None,space,0.36700599000323564,140.4120626039803,None,2.7792,140.90413710894063,None,,,,,,,DEC017,001,2022_Nov_02_1439,2-25_cond_decay_EYE-try,2021.2.3,120.50999206878282,
left,0.75,1.0,0,0,0,0,0,0,0,0,0,0,2,2,5,,,,,,,,,,,,,,,5s,141.9613125049509,142.9621871159179,142.9541110289283,None,143.95396584190894,148.02927144791465,143.95396584190894,148.02927144791465,148.02071520290338,None,148.02071520290338,None,space,0.4444813869195059,148.02071520290338,None,4.0697,148.5941483589122,None,,,,,,,DEC017,001,2022_Nov_02_1439,2-25_cond_decay_EYE-try,2021.2.3,120.50999206878282,
left,0.75,1.0,0,0,0,0,0,0,0,0,0,0,3,3,0,,,,,,,,,,,,,,,5s,149.6453055338934,150.64516597194597,150.6371392669389,None,151.63715793890879,152.7289328579791,151.63715793890879,152.7289328579791,152.7289328579791,None,152.7289328579791,None,None,,152.7289328579791,None,1.0902,153.8604584839195,None,,,,,,,DEC017,001,2022_Nov_02_1439,2-25_cond_decay_EYE-try,2021.2.3,120.50999206878282,
right,1.0,0.75,0,0,0,0,0,0,0,0,0,0,4,4,6,,,,,,,,,,,,,,,5s,154.91055546398275,155.91194457700476,155.9040286479285,None,156.90391319000628,161.53678216191474,156.90391319000628,161.53678216191474,161.52920858492143,None,161.52920858492143,None,space,0.34403195697814226,161.52920858492143,None,4.6297,162.00267560896464,None,,,,,,,DEC017,001,2022_Nov_02_1439,2-25_cond_decay_EYE-try,2021.2.3,120.50999206878282,
right,1.0,0.75,0,0,0,0,0,0,0,0,0,0,5,5,3,,,,,,,,,,,,,,,5s,163.05459044896998,164.05389427393675,164.04558775597252,None,165.05396723700687,168.2536913799122,165.05396723700687,168.2536913799122,168.24585486389697,None,168.24585486389697,None,space,0.39403977210167795,168.24585486389697,None,3.1944,168.76916655094828,None,,,,,,,DEC017,001,2022_Nov_02_1439,2-25_cond_decay_EYE-try,2021.2.3,120.50999206878282,
right,0.75,1.0,1,0,0,0,0,0,0,0,0,0,6,6,9,,,,,,,,,,,,,,,5s,169.8197770708939,170.8209889739519,170.80371375498362,None,171.80385781999212,172.66283442499116,171.80385781999212,172.66283442499116,172.66283442499116,None,172.66283442499116,None,space,0.44355387007817626,172.66283442499116,None,0.8541,173.23601204995066,None,,,,,,,DEC017,001,2022_Nov_02_1439,2-25_cond_decay_EYE-try,2021.2.3,120.50999206878282,
left,1.0,0.75,1,0,0,0,0,0,0,0,0,0,7,7,4,,,,,,,,,,,,,,,5s,174.29417354695033,175.29575129097793,175.28737721196376,None,176.2877630799776,177.7128751249984,176.2877630799776,177.7128751249984,177.7128751249984,None,177.7128751249984,None,space,0.4105790600879118,177.7128751249984,None,1.4241,178.25257364998106,None,,,,,,,DEC017,001,2022_Nov_02_1439,2-25_cond_decay_EYE-try,2021.2.3,120.50999206878282,
right,1.0,0.75,0,0,0,0,0,0,0,0,0,0,8,8,8,,,,,,,,,,,,,,,5s,179.31150699197315,180.31277200300246,180.3037306709448,None,181.3038805789547,185.9207234029891,181.3038805789547,185.9207234029891,185.9207234029891,None,185.9207234029891,None,space,0.352380980970338,185.9207234029891,None,4.617,186.4024622439174,None,,,,,,,DEC017,001,2022_Nov_02_1439,2-25_cond_decay_EYE-try,2021.2.3,120.50999206878282,
left,0.75,1.0,0,0,0,0,0,0,0,0,0,0,9,9,2,,,,,,,,,,,,,,,5s,187.45296291389968,188.4539184939349,188.43755951791536,None,189.43747430492658,190.06258417794015,189.43747430492658,190.06258417794015,190.06258417794015,None,190.06258417794015,None,space,0.5257602470228449,190.06258417794015,None,0.6248,190.71928654098883,None,,,,,,,DEC017,001,2022_Nov_02_1439,2-25_cond_decay_EYE-try,2021.2.3,120.50999206878282,
right,1.0,0.75,0,0,0,0,0,0,0,0,0,1,0,10,8,,,,,,,,,,,,,,,5s,191.7775461759884,192.77954067790415,192.7624222409213,None,193.76277259294875,194.75448578689247,193.76277259294875,194.75448578689247,194.75448578689247,None,194.75448578689247,None,space,0.3833103950601071,194.75448578689247,None,0.9867,195.26311364991125,None,,,,,,,DEC017,001,2022_Nov_02_1439,2-25_cond_decay_EYE-try,2021.2.3,120.50999206878282,
right,1.0,0.75,0,0,0,0,0,0,0,0,0,1,1,11,6,,,,,,,,,,,,,,,5s,196.31936844997108,197.32102191494778,197.30416091892403,None,198.3044479729142,201.13811230193824,198.3044479729142,201.13811230193824,201.13811230193824,None,201.13811230193824,None,space,0.391567187034525,201.13811230193824,None,2.8292,201.65445767494384,None,,,,,,,DEC017,001,2022_Nov_02_1439,2-25_cond_decay_EYE-try,2021.2.3,120.50999206878282,
left,0.75,1.0,0,0,0,0,0,0,0,0,0,1,2,12,0,,,,,,,,,,,,,,,5s,202.7202629429521,203.7213402899215,203.71245510689914,None,204.7128385369433,208.28778535698075,204.7128385369433,208.28778535698075,208.28778535698075,None,208.28778535698075,None,space,0.4504367969930172,208.28778535698075,None,3.5735,208.8618500889279,None,,,,,,,DEC017,001,2022_Nov_02_1439,2-25_cond_decay_EYE-try,2021.2.3,120.50999206878282,
right,1.0,0.75,0,0,0,0,0,0,0,0,0,1,3,13,3,,,,,,,,,,,,,,,5s,209.92856412997935,210.92933647497557,210.92132837092504,None,211.9214672689559,216.23791708995122,211.9214672689559,216.23791708995122,216.23791708995122,None,216.23791708995122,None,space,0.3170471841003746,216.23791708995122,None,4.3162,216.67878309392836,None,,,,,,,DEC017,001,2022_Nov_02_1439,2-25_cond_decay_EYE-try,2021.2.3,120.50999206878282,
left,0.75,1.0,0,0,0,0,0,0,0,0,0,1,4,14,5,,,,,,,,,,,,,,,5s,217.73684464592952,218.73839079996105,218.7298931259429,None,219.73009440791793,222.413297357969,219.73009440791793,222.413297357969,222.40461889398284,None,222.40461889398284,None,space,0.3673298249486834,222.40461889398284,None,2.6801,222.90354698395822,None,,,,,,,DEC017,001,2022_Nov_02_1439,2-25_cond_decay_EYE-try,2021.2.3,120.50999206878282,
left,0.75,1.0,0,0,0,0,0,0,0,0,0,1,5,15,7,,,,,,,,,,,,,,,5s,223.95365553197917,224.95465325389523,224.9459277879214,None,225.94607967091724,229.46350153291132,225.94607967091724,229.46350153291132,229.46350153291132,None,229.46350153291132,None,space,0.31650797103066,229.46350153291132,None,3.5164,229.90386003092863,None,,,,,,,DEC017,001,2022_Nov_02_1439,2-25_cond_decay_EYE-try,2021.2.3,120.50999206878282,
left,1.0,0.75,1,0,0,0,0,0,0,0,0,1,6,16,4,,,,,,,,,,,,,,,5s,230.96176670689601,231.96293470798992,231.954681227915,None,232.95498563698493,233.58810050797183,232.95498563698493,233.58810050797183,233.58033958997112,None,233.58033958997112,None,space,0.549854998011142,233.58033958997112,None,0.6274,234.26144862594083,None,,,,,,,DEC017,001,2022_Nov_02_1439,2-25_cond_decay_EYE-try,2021.2.3,120.50999206878282,
right,0.75,1.0,1,0,0,0,0,0,0,0,0,1,7,17,9,,,,,,,,,,,,,,,5s,235.32032328192145,236.3218556039501,236.31336808099877,None,237.3131476819981,239.27944462595042,237.3131476819981,239.27944462595042,239.27944462595042,None,239.27944462595042,None,space,0.3363579099532217,239.27944462595042,None,1.9659,239.7450683369534,None,,,,,,,DEC017,001,2022_Nov_02_1439,2-25_cond_decay_EYE-try,2021.2.3,120.50999206878282,
left,0.75,1.0,0,0,0,0,0,0,0,0,0,1,8,18,2,,,,,,,,,,,,,,,5s,240.79623573890422,241.79696671594866,241.78772943094373,None,242.78783827100415,245.4379793339176,242.78783827100415,245.4379793339176,245.4379793339176,None,245.4379793339176,None,space,0.35938684607390314,245.4379793339176,None,2.6478,245.92867905891035,None,,,,,,,DEC017,001,2022_Nov_02_1439,2-25_cond_decay_EYE-try,2021.2.3,120.50999206878282,
right,1.0,0.75,0,0,0,0,0,0,0,0,0,1,9,19,1,,,,,,,,,,,,,,,5s,246.98680036899168,247.98790862900205,247.97954290593043,None,248.979773723986,249.8133595949039,248.979773723986,249.8133595949039,249.80494593689218,None,249.80494593689218,None,space,0.41085941495839506,249.80494593689218,None,0.8274,250.34520150290336,None,,,,,,,DEC017,001,2022_Nov_02_1439,2-25_cond_decay_EYE-try,2021.2.3,120.50999206878282,
,,,,0,0,0,0,0,0,0,0,,,,,,,,,,,,,,,,,,,,,,,,,,,,,,,,,,,,,,,,,,,,,DEC017,001,2022_Nov_02_1439,2-25_cond_decay_EYE-try,2021.2.3,120.50999206878282,
right,1.0,0.75,0,0,0,0,0,1,0,1,0,0,0,0,7,,,,,,,,,251.23706991993822,None,251.23706991993822,None,251.23706991993822,None,3s,259.9537416739622,260.95481360598933,260.9466571439989,None,261.94652806199156,262.51364232890774,261.94652806199156,262.51364232890774,262.5047938649077,None,262.5047938649077,None,space,0.2837946660583839,262.5047938649077,None,0.5608,262.92079220793676,None,,,,,,,DEC017,001,2022_Nov_02_1439,2-25_cond_decay_EYE-try,2021.2.3,120.50999206878282,
right,1.0,0.75,0,0,0,0,0,1,0,1,0,0,1,1,6,,,,,,,,,,,,,,,3s,263.9706646759296,264.97182176995557,264.963323402917,None,265.9636028489331,266.8221706720069,265.9636028489331,266.8221706720069,266.8221706720069,None,266.8221706720069,None,space,0.38561530294828117,266.8221706720069,None,0.8558,267.33702227892354,None,,,,,,,DEC017,001,2022_Nov_02_1439,2-25_cond_decay_EYE-try,2021.2.3,120.50999206878282,
right,1.0,0.75,0,0,0,0,0,1,0,1,0,0,2,2,8,,,,,,,,,,,,,,,3s,268.38672804890666,269.38876937690657,269.3806291630026,None,270.3804831189336,271.92146720795427,270.3804831189336,271.92146720795427,271.9138315389864,None,271.9138315389864,None,space,0.3194463320542127,271.9138315389864,None,1.5353,272.3627864449518,None,,,,,,,DEC017,001,2022_Nov_02_1439,2-25_cond_decay_EYE-try,2021.2.3,120.50999206878282,
right,1.0,0.75,0,0,0,0,0,1,0,1,0,0,3,3,0,,,,,,,,,,,,,,,3s,273.4133785169106,274.4136505249189,274.405551525997,None,275.40541780600324,276.38813988899346,275.40541780600324,276.38813988899346,276.38813988899346,None,276.38813988899346,None,space,0.3112556580454111,276.38813988899346,None,0.9822,276.8284705709666,None,,,,,,,DEC017,001,2022_Nov_02_1439,2-25_cond_decay_EYE-try,2021.2.3,120.50999206878282,
left,0.75,1.0,0,0,0,0,0,1,0,1,0,0,4,4,4,,,,,,,,,,,,,,,3s,277.8867484309012,278.88852538494393,278.88023046497256,None,279.88029512995854,282.3800895179156,279.88029512995854,282.3800895179156,282.3800895179156,None,282.3800895179156,None,space,0.33386397000867873,282.3800895179156,None,2.5,282.83812976791523,None,,,,,,,DEC017,001,2022_Nov_02_1439,2-25_cond_decay_EYE-try,2021.2.3,120.50999206878282,
left,0.75,1.0,0,0,0,0,0,1,0,1,0,0,5,5,3,,,,,,,,,,,,,,,3s,283.89580160193145,284.89759591489565,284.88912637194153,None,285.8882681739051,287.00501169799827,285.8882681739051,287.00501169799827,287.00501169799827,None,287.00501169799827,None,space,0.38482787495013326,287.00501169799827,None,1.1163,287.52111499395687,None,,,,,,,DEC017,001,2022_Nov_02_1439,2-25_cond_decay_EYE-try,2021.2.3,120.50999206878282,
right,1.0,0.75,0,0,0,0,0,1,0,1,0,0,6,6,2,,,,,,,,,,,,,,,3s,288.5792248629732,289.5803893319098,289.5723489539232,None,290.5723773029167,293.4724622989306,290.5723773029167,293.4724622989306,293.4724622989306,None,293.4724622989306,None,space,0.36866449494846165,293.4724622989306,None,2.8983,293.9712564209476,None,,,,,,,DEC017,001,2022_Nov_02_1439,2-25_cond_decay_EYE-try,2021.2.3,120.50999206878282,
right,0.75,1.0,1,0,0,0,0,1,0,1,0,0,7,7,5,,,,,,,,,,,,,,,3s,295.0219224829925,296.0223653980065,296.0133919939399,None,297.0142129329033,299.8391150289681,297.0142129329033,299.8391150289681,299.8391150289681,None,299.8391150289681,None,space,0.3767057949444279,299.8391150289681,None,2.8194,300.3461245629005,None,,,,,,,DEC017,001,2022_Nov_02_1439,2-25_cond_decay_EYE-try,2021.2.3,120.50999206878282,
left,0.75,1.0,0,0,0,0,0,1,0,1,0,0,8,8,9,,,,,,,,,,,,,,,3s,301.404145581997,302.4060949939303,302.39749333192594,None,303.3969238149002,303.61380333499983,303.3969238149002,303.61380333499983,303.6061651529744,304.60540512390435,303.6061651529744,304.60540512390435,None,,303.6061651529744,304.60540512390435,0.2119,304.73790827498306,None,,,,,,,DEC017,001,2022_Nov_02_1439,2-25_cond_decay_EYE-try,2021.2.3,120.50999206878282,
left,1.0,0.75,1,0,0,0,0,1,0,1,0,0,9,9,1,,,,,,,,,,,,,,,3s,305.7964540940011,306.7973099509254,306.78900652891025,None,307.78905645397026,308.7643200888997,307.78905645397026,308.7643200888997,308.7556878129253,None,308.7556878129253,None,space,0.3026977290865034,308.7556878129253,None,0.9685,309.1880242739571,None,,,,,,,DEC017,001,2022_Nov_02_1439,2-25_cond_decay_EYE-try,2021.2.3,120.50999206878282,
right,1.0,0.75,0,0,0,0,0,1,0,1,0,1,0,10,2,,,,,,,,,,,,,,,3s,310.2475558290025,311.24766198394354,311.23934541491326,None,312.23914758698083,313.446940633934,312.23914758698083,313.446940633934,313.4393540349556,None,313.4393540349556,None,space,0.38556958793196827,313.4393540349556,None,1.2026,313.95394991489593,None,,,,,,,DEC017,001,2022_Nov_02_1439,2-25_cond_decay_EYE-try,2021.2.3,120.50999206878282,
left,0.75,1.0,0,0,0,0,0,1,0,1,0,1,1,11,3,,,,,,,,,,,,,,,3s,315.01256124291103,316.0141435120022,316.00610548094846,None,317.0060948919272,318.0726478409488,317.0060948919272,318.0726478409488,318.0639979488915,None,318.0639979488915,None,space,0.31141630897764117,318.0639979488915,None,1.0601,318.50439047499094,None,,,,,,,DEC017,001,2022_Nov_02_1439,2-25_cond_decay_EYE-try,2021.2.3,120.50999206878282,
right,1.0,0.75,0,0,0,0,0,1,0,1,0,1,2,12,8,,,,,,,,,,,,,,,3s,319.5552981538931,320.5562258209102,320.5471496179234,None,321.5478105020011,324.4642884429777,321.5478105020011,324.4642884429777,324.45584932598285,None,324.45584932598285,None,space,0.44169338000938296,324.45584932598285,None,2.9107,325.0213998449035,None,,,,,,,DEC017,001,2022_Nov_02_1439,2-25_cond_decay_EYE-try,2021.2.3,120.50999206878282,
left,0.75,1.0,0,0,0,0,0,1,0,1,0,1,3,13,9,,,,,,,,,,,,,,,3s,326.0812297889497,327.0810929189902,327.0720338599058,None,328.07293672591913,329.05595909489784,328.07293672591913,329.05595909489784,329.05595909489784,None,329.05595909489784,None,space,0.40232360805384815,329.05595909489784,None,0.9763,329.58825574594084,None,,,,,,,DEC017,001,2022_Nov_02_1439,2-25_cond_decay_EYE-try,2021.2.3,120.50999206878282,
left,1.0,0.75,1,0,0,0,0,1,0,1,0,1,4,14,1,,,,,,,,,,,,,,,3s,330.6378905969905,331.6388975769514,331.6305966769578,None,332.63079382595606,334.51468008197844,332.63079382595606,334.51468008197844,334.51468008197844,None,334.51468008197844,None,space,0.3356693679234013,334.51468008197844,None,1.8832,334.9799376470037,None,,,,,,,DEC017,001,2022_Nov_02_1439,2-25_cond_decay_EYE-try,2021.2.3,120.50999206878282,
left,0.75,1.0,0,0,0,0,0,1,0,1,0,1,5,15,7,,,,,,,,,,,,,,,3s,336.0293629489606,337.03116182098165,337.0220196458977,None,338.0228194909869,339.855544290971,338.0228194909869,339.855544290971,339.855544290971,None,339.855544290971,None,space,0.3523782950360328,339.855544290971,None,1.8287,340.33802352892235,None,,,,,,,DEC017,001,2022_Nov_02_1439,2-25_cond_decay_EYE-try,2021.2.3,120.50999206878282,
right,1.0,0.75,0,0,0,0,0,1,0,1,0,1,6,16,0,,,,,,,,,,,,,,,3s,341.38781827292405,342.38882316695526,342.3808430249337,None,343.38053947489243,345.28047698398586,343.38053947489243,345.28047698398586,345.28047698398586,None,345.28047698398586,None,space,0.35275820503011346,345.28047698398586,None,1.9007,345.7633495819755,None,,,,,,,DEC017,001,2022_Nov_02_1439,2-25_cond_decay_EYE-try,2021.2.3,120.50999206878282,
left,0.75,1.0,0,0,0,0,0,1,0,1,0,1,7,17,4,,,,,,,,,,,,,,,3s,346.81358698999975,347.8147494819714,347.8062792449491,None,348.8059281979222,350.73083039198536,348.8059281979222,350.73083039198536,350.72242878191173,None,350.72242878191173,None,space,0.35289291793014854,350.72242878191173,None,1.9195,351.20483381696977,None,,,,,,,DEC017,001,2022_Nov_02_1439,2-25_cond_decay_EYE-try,2021.2.3,120.50999206878282,
right,0.75,1.0,1,0,0,0,0,1,0,1,0,1,8,18,5,,,,,,,,,,,,,,,3s,352.25448644789867,353.2564617859898,353.239663343993,None,354.23966423689853,354.84750920999795,354.23966423689853,354.84750920999795,354.84750920999795,None,354.84750920999795,None,space,0.5345333979930729,354.84750920999795,None,0.6051,355.513630439993,None,,,,,,,DEC017,001,2022_Nov_02_1439,2-25_cond_decay_EYE-try,2021.2.3,120.50999206878282,
right,1.0,0.75,0,0,0,0,0,1,0,1,0,1,9,19,6,,,,,,,,,,,,,,,3s,356.5635291530052,357.5645269450033,357.5565210339846,None,358.55666511598974,360.514399324893,358.55666511598974,360.514399324893,360.514399324893,None,360.514399324893,None,space,0.3356956810457632,360.514399324893,None,1.9581,360.9794173609698,None,,,,,,,DEC017,001,2022_Nov_02_1439,2-25_cond_decay_EYE-try,2021.2.3,120.50999206878282,
,,,,0,0,0,0,1,0,1,0,,,,,,,,,,,,,,,,,,,,,,,,,,,,,,,,,,,,,,,,,,,,,DEC017,001,2022_Nov_02_1439,2-25_cond_decay_EYE-try,2021.2.3,120.50999206878282,
right,1.0,0.75,0,0,0,0,0,2,0,2,0,0,0,0,7,,,,,,,,,361.87133163399994,None,361.87133163399994,None,361.87133163399994,None,10s,377.0052434229292,378.0065459558973,377.9975091879023,None,378.99827159999404,380.43966383789666,378.99827159999404,380.43966383789666,380.4308380399598,None,380.4308380399598,None,space,0.38626494095660746,380.4308380399598,None,1.436,380.947154394933,None,,,,,,,DEC017,001,2022_Nov_02_1439,2-25_cond_decay_EYE-try,2021.2.3,120.50999206878282,
right,1.0,0.75,0,0,0,0,0,2,0,2,0,0,1,1,5,,,,,,,,,,,,,,,10s,381.9971541459672,382.9983160609845,382.98927587491926,None,383.98944585293066,390.09037379489746,383.98944585293066,390.09037379489746,390.09037379489746,None,390.09037379489746,None,space,0.3349259280366823,390.09037379489746,None,6.0986,390.555339984945,None,,,,,,,DEC017,001,2022_Nov_02_1439,2-25_cond_decay_EYE-try,2021.2.3,120.50999206878282,
left,0.75,1.0,0,0,0,0,0,2,0,2,0,0,2,2,0,,,,,,,,,,,,,,,10s,391.6137507339008,392.6149757259991,392.60670969297644,None,393.6060800940031,396.598231535987,393.6060800940031,396.598231535987,396.5895060499897,None,396.5895060499897,None,space,0.3672807189868763,396.5895060499897,None,2.988,397.081454688916,None,,,,,,,DEC017,001,2022_Nov_02_1439,2-25_cond_decay_EYE-try,2021.2.3,120.50999206878282,
left,1.0,0.75,1,0,0,0,0,2,0,2,0,0,3,3,8,,,,,,,,,,,,,,,10s,398.1384645549115,399.14007594797295,399.1317654099548,None,400.1311872629449,409.90643775998615,400.1311872629449,409.90643775998615,409.90643775998615,None,409.90643775998615,None,space,0.4608175930334255,409.90643775998615,None,9.7738,410.49064049392473,None,,,,,,,DEC017,001,2022_Nov_02_1439,2-25_cond_decay_EYE-try,2021.2.3,120.50999206878282,
left,0.75,1.0,0,0,0,0,0,2,0,2,0,0,4,4,2,,,,,,,,,,,,,,,10s,411.54724162991624,412.5480649769306,412.539819037891,None,413.539957822999,421.73195961490273,413.539957822999,421.73195961490273,421.7231610509334,None,421.7231610509334,None,space,0.43658152606803924,421.7231610509334,None,8.1851,422.2887095299084,None,,,,,,,DEC017,001,2022_Nov_02_1439,2-25_cond_decay_EYE-try,2021.2.3,120.50999206878282,
right,1.0,0.75,0,0,0,0,0,2,0,2,0,0,5,5,3,,,,,,,,,,,,,,,10s,423.3475668239407,424.34823036089074,424.340198158985,None,425.33996042690706,432.84852847794537,425.33996042690706,432.84852847794537,432.84852847794537,None,432.84852847794537,None,space,0.3276431930717081,432.84852847794537,None,7.5044,433.30625128699467,None,,,,,,,DEC017,001,2022_Nov_02_1439,2-25_cond_decay_EYE-try,2021.2.3,120.50999206878282,
right,0.75,1.0,1,0,0,0,0,2,0,2,0,0,6,6,1,,,,,,,,,,,,,,,10s,434.35577480797656,435.35691137600224,435.3487081530038,None,436.3483782958938,444.9738973969361,436.3483782958938,444.9738973969361,444.96520743891597,None,444.96520743891597,None,space,0.4189205609727651,444.96520743891597,None,8.6194,445.51444960199296,None,,,,,,,DEC017,001,2022_Nov_02_1439,2-25_cond_decay_EYE-try,2021.2.3,120.50999206878282,
left,0.75,1.0,0,0,0,0,0,2,0,2,0,0,7,7,4,,,,,,,,,,,,,,,10s,446.5658790639136,447.56548482889775,447.5572841858957,None,448.556635839981,454.39922090491746,448.556635839981,454.39922090491746,454.39922090491746,None,454.39922090491746,None,space,0.40215988701675087,454.39922090491746,None,5.8379,454.93117297196295,None,,,,,,,DEC017,001,2022_Nov_02_1439,2-25_cond_decay_EYE-try,2021.2.3,120.50999206878282,
left,0.75,1.0,0,0,0,0,0,2,0,2,0,0,8,8,9,,,,,,,,,,,,,,,10s,455.9891947779106,456.99047468195204,456.9821499659447,None,457.9816738439258,464.031949333963,457.9816738439258,464.031949333963,464.0242291869363,None,464.0242291869363,None,space,0.402187971980311,464.0242291869363,None,6.0466,464.55546024499927,None,,,,,,,DEC017,001,2022_Nov_02_1439,2-25_cond_decay_EYE-try,2021.2.3,120.50999206878282,
right,1.0,0.75,0,0,0,0,0,2,0,2,0,0,9,9,6,,,,,,,,,,,,,,,10s,465.6074136989191,466.607457717997,466.59926304395776,None,467.59938154998235,472.44884392700624,467.59938154998235,472.44884392700624,472.44884392700624,None,472.44884392700624,None,space,0.40240495710168034,472.44884392700624,None,4.8466,472.9805018949555,None,,,,,,,DEC017,001,2022_Nov_02_1439,2-25_cond_decay_EYE-try,2021.2.3,120.50999206878282,
right,0.75,1.0,1,0,0,0,0,2,0,2,0,1,0,10,1,,,,,,,,,,,,,,,10s,474.0310049749678,475.03253709198907,475.0235652719857,None,476.0153628679691,481.52402025589254,476.0153628679691,481.52402025589254,481.52402025589254,482.52412860491313,481.52402025589254,482.52412860491313,None,,481.52402025589254,482.52412860491313,5.5033,482.6563909969991,None,,,,,,,DEC017,001,2022_Nov_02_1439,2-25_cond_decay_EYE-try,2021.2.3,120.50999206878282,
left,0.75,1.0,0,0,0,0,0,2,0,2,0,1,1,11,4,,,,,,,,,,,,,,,10s,483.71422268799506,484.71539128094446,484.7072461829521,None,485.70714837289415,488.96559982094914,485.70714837289415,488.96559982094914,488.96559982094914,None,488.96559982094914,None,space,0.5671171679859981,488.96559982094914,None,3.259,489.6649011329282,None,,,,,,,DEC017,001,2022_Nov_02_1439,2-25_cond_decay_EYE-try,2021.2.3,120.50999206878282,
right,1.0,0.75,0,0,0,0,0,2,0,2,0,1,2,12,3,,,,,,,,,,,,,,,10s,490.72342459193897,491.7240767519688,491.7078751719091,None,492.70713001594413,500.37378736096434,492.70713001594413,500.37378736096434,500.37378736096434,None,500.37378736096434,None,space,0.36821620899718255,500.37378736096434,None,7.6652,500.8658364319708,None,,,,,,,DEC017,001,2022_Nov_02_1439,2-25_cond_decay_EYE-try,2021.2.3,120.50999206878282,
left,1.0,0.75,1,0,0,0,0,2,0,2,0,1,3,13,8,,,,,,,,,,,,,,,10s,501.92303043592256,502.9244905479718,502.9078711649636,505.56565952894744,503.90782245097216,504.56554917700123,503.90782245097216,504.56554917700123,504.57400969893206,None,504.57400969893206,None,None,,504.57400969893206,None,0.6594,505.6982670419384,None,,,,,,,DEC017,001,2022_Nov_02_1439,2-25_cond_decay_EYE-try,2021.2.3,120.50999206878282,
left,0.75,1.0,0,0,0,0,0,2,0,2,0,1,4,14,9,,,,,,,,,,,,,,,10s,506.74784976092633,507.74894851993304,507.7406104069669,None,508.7408763359999,509.0323022810044,508.7408763359999,509.0323022810044,509.0323022810044,None,509.0323022810044,None,None,,509.0323022810044,None,0.2885,510.248063406907,None,,,,,,,DEC017,001,2022_Nov_02_1439,2-25_cond_decay_EYE-try,2021.2.3,120.50999206878282,
left,0.75,1.0,0,0,0,0,0,2,0,2,0,1,5,15,0,,,,,,,,,,,,,,,10s,511.30613680090755,512.3082099049352,512.2992386289407,None,513.299750435981,520.8664736689534,513.299750435981,520.8664736689534,520.8664736689534,None,520.8664736689534,None,space,0.37518395902588964,520.8664736689534,None,7.5636,521.373720071977,None,,,,,,,DEC017,001,2022_Nov_02_1439,2-25_cond_decay_EYE-try,2021.2.3,120.50999206878282,
right,1.0,0.75,0,0,0,0,0,2,0,2,0,1,6,16,6,,,,,,,,,,,,,,,10s,522.4238448619144,523.4245667619398,523.4084991299314,None,524.4078141149366,533.9744237799896,524.4078141149366,533.9744237799896,533.9744237799896,None,533.9744237799896,None,space,0.44477699999697506,533.9744237799896,None,9.5625,534.5479708099738,None,,,,,,,DEC017,001,2022_Nov_02_1439,2-25_cond_decay_EYE-try,2021.2.3,120.50999206878282,
right,1.0,0.75,0,0,0,0,0,2,0,2,0,1,7,17,7,,,,,,,,,,,,,,,10s,535.5910597739276,536.5909289079718,536.5825412459671,None,537.5825603079284,542.7082276399015,537.5825603079284,542.7082276399015,542.6996965389699,None,542.6996965389699,None,space,0.5359007440274581,542.6996965389699,None,5.1186,543.3657904529246,None,,,,,,,DEC017,001,2022_Nov_02_1439,2-25_cond_decay_EYE-try,2021.2.3,120.50999206878282,
right,1.0,0.75,0,0,0,0,0,2,0,2,0,1,8,18,5,,,,,,,,,,,,,,,10s,544.4149104208918,545.4165758210002,545.4084166069515,None,546.4086976769613,547.4169094919926,546.4086976769613,547.4169094919926,547.4083903739229,None,547.4083903739229,None,space,0.5354891400784254,547.4083903739229,None,1.0044,548.0738397969399,None,,,,,,,DEC017,001,2022_Nov_02_1439,2-25_cond_decay_EYE-try,2021.2.3,120.50999206878282,
left,0.75,1.0,0,0,0,0,0,2,0,2,0,1,9,19,2,,,,,,,,,,,,,,,10s,549.1238262519473,550.1245731889503,550.1166621849407,None,551.1163976489333,560.2920402589953,551.1163976489333,560.2920402589953,560.2920402589953,None,560.2920402589953,None,space,0.3590345949633047,560.2920402589953,None,9.1758,560.7818543699104,None,,,,,,,DEC017,001,2022_Nov_02_1439,2-25_cond_decay_EYE-try,2021.2.3,120.50999206878282,
,,,,0,0,0,0,2,0,2,0,,,,,,,,,,,,,,,,,,,,,,,,,,,,,,,,,,,,,,,,,,,,,DEC017,001,2022_Nov_02_1439,2-25_cond_decay_EYE-try,2021.2.3,120.50999206878282,
left,0.75,1.0,0,0,0,0,0,3,0,3,0,0,0,0,0,,,,,,,,,561.673842642922,None,561.673842642922,None,561.673842642922,None,1s,593.9238065949176,594.9254963069689,594.9172012899071,None,595.9166639229516,596.8500970900059,595.9166639229516,596.8500970900059,596.8424907879671,None,596.8424907879671,None,space,0.2851660449523479,596.8424907879671,None,0.927,597.2575372499414,None,,,,,,,DEC017,001,2022_Nov_02_1439,2-25_cond_decay_EYE-try,2021.2.3,120.50999206878282,
left,1.0,0.75,1,0,0,0,0,3,0,3,0,0,1,1,6,,,,,,,,,,,,,,,1s,598.3072438099189,599.3087903489359,599.3008238419425,None,600.3003404859919,601.1590176819591,600.3003404859919,601.1590176819591,601.1590176819591,None,601.1590176819591,None,space,0.5418146030278876,601.1590176819591,None,0.8546,601.8242344378959,None,,,,,,,DEC017,001,2022_Nov_02_1439,2-25_cond_decay_EYE-try,2021.2.3,120.50999206878282,
right,1.0,0.75,0,0,0,0,0,3,0,3,0,0,2,2,5,,,,,,,,,,,,,,,1s,602.8909200599883,603.8921990159433,603.8839608539129,None,604.8839706619037,605.133730247966,604.8839706619037,605.133730247966,605.125185257988,None,605.125185257988,None,space,0.3256386979483068,605.125185257988,None,0.243,605.574264572002,None,,,,,,,DEC017,001,2022_Nov_02_1439,2-25_cond_decay_EYE-try,2021.2.3,120.50999206878282,
left,0.75,1.0,0,0,0,0,0,3,0,3,0,0,3,3,4,,,,,,,,,,,,,,,1s,606.6403588409303,607.6416807709029,607.6333864988992,None,608.633904636954,609.1841475479305,608.633904636954,609.1841475479305,609.1841475479305,None,609.1841475479305,None,space,0.2833497809479013,609.1841475479305,None,0.5494,609.591473231907,None,,,,,,,DEC017,001,2022_Nov_02_1439,2-25_cond_decay_EYE-try,2021.2.3,120.50999206878282,
right,1.0,0.75,0,0,0,0,0,3,0,3,0,0,4,4,1,,,,,,,,,,,,,,,1s,610.6575460199965,611.658461465966,611.650191363995,None,612.6507663299562,613.0922520399326,612.6507663299562,613.0922520399326,613.083306577988,None,613.083306577988,None,space,0.3028756040148437,613.083306577988,None,0.4356,613.5158820779761,None,,,,,,,DEC017,001,2022_Nov_02_1439,2-25_cond_decay_EYE-try,2021.2.3,120.50999206878282,
right,1.0,0.75,0,0,0,0,0,3,0,3,0,0,5,5,8,,,,,,,,,,,,,,,1s,614.5746240729932,615.5756626089569,615.5676453629276,None,616.5674386319006,616.8924242479261,616.5674386319006,616.8924242479261,616.8838732359,None,616.8838732359,None,space,0.336315019056201,616.8838732359,None,0.3182,617.3488514169585,None,,,,,,,DEC017,001,2022_Nov_02_1439,2-25_cond_decay_EYE-try,2021.2.3,120.50999206878282,
right,1.0,0.75,0,0,0,0,0,3,0,3,0,0,6,6,7,,,,,,,,,,,,,,,1s,618.3995848560007,619.4001030758955,619.39273425797,None,620.3922044259962,621.0918799999636,620.3922044259962,621.0918799999636,621.0843460819451,None,621.0843460819451,None,space,0.2688309589866549,621.0843460819451,None,0.6961,621.4826891398989,None,,,,,,,DEC017,001,2022_Nov_02_1439,2-25_cond_decay_EYE-try,2021.2.3,120.50999206878282,
right,0.75,1.0,1,0,0,0,0,3,0,3,0,0,7,7,9,,,,,,,,,,,,,,,1s,622.5324750409927,623.5335984359263,623.5253711369587,None,624.52549579693,625.1340773398988,624.52549579693,625.1340773398988,625.1252647669753,None,625.1252647669753,None,space,0.3597001569578424,625.1252647669753,None,0.602,625.616214518901,None,,,,,,,DEC017,001,2022_Nov_02_1439,2-25_cond_decay_EYE-try,2021.2.3,120.50999206878282,
left,0.75,1.0,0,0,0,0,0,3,0,3,0,0,8,8,2,,,,,,,,,,,,,,,1s,626.6747899008915,627.6755323599791,627.6674689389765,None,628.6676672759932,629.2090528839035,628.6676672759932,629.2090528839035,629.2005012430018,None,629.2005012430018,None,space,0.2754655369790271,629.2005012430018,None,0.5399,629.6008788530016,None,,,,,,,DEC017,001,2022_Nov_02_1439,2-25_cond_decay_EYE-try,2021.2.3,120.50999206878282,
left,0.75,1.0,0,0,0,0,0,3,0,3,0,0,9,9,3,,,,,,,,,,,,,,,1s,630.6588823019993,631.6586119709536,631.6511646209983,None,632.6505424838979,633.6340250559151,632.6505424838979,633.6340250559151,633.6340250559151,None,633.6340250559151,None,space,0.27779608697164804,633.6340250559151,None,0.983,634.0410865879385,None,,,,,,,DEC017,001,2022_Nov_02_1439,2-25_cond_decay_EYE-try,2021.2.3,120.50999206878282,
right,1.0,0.75,0,0,0,0,0,3,0,3,0,1,0,10,7,,,,,,,,,,,,,,,1s,635.0916697359644,636.0924376139883,636.0845378619852,None,637.0842581049073,637.751148957992,637.0842581049073,637.751148957992,637.7427277639508,None,637.7427277639508,None,space,0.38517936901189387,637.7427277639508,None,0.664,638.2573734479956,None,,,,,,,DEC017,001,2022_Nov_02_1439,2-25_cond_decay_EYE-try,2021.2.3,120.50999206878282,
left,1.0,0.75,1,0,0,0,0,3,0,3,0,1,1,11,6,,,,,,,,,,,,,,,1s,639.3095147599233,640.3094336258946,640.300988444942,None,641.3012518319301,641.5338753749384,641.3012518319301,641.5338753749384,641.5338753749384,None,641.5338753749384,None,space,0.42761925992090255,641.5338753749384,None,0.2256,642.0908594239736,None,,,,,,,DEC017,001,2022_Nov_02_1439,2-25_cond_decay_EYE-try,2021.2.3,120.50999206878282,
right,1.0,0.75,0,0,0,0,0,3,0,3,0,1,2,12,8,,,,,,,,,,,,,,,1s,643.1497602179879,644.150362572982,644.142291474971,None,645.1422567609698,645.9679314909736,645.1422567609698,645.9679314909736,645.9679314909736,None,645.9679314909736,None,space,0.33299392997287214,645.9679314909736,None,0.8253,646.4257584559964,None,,,,,,,DEC017,001,2022_Nov_02_1439,2-25_cond_decay_EYE-try,2021.2.3,120.50999206878282,
right,1.0,0.75,0,0,0,0,0,3,0,3,0,1,3,13,5,,,,,,,,,,,,,,,1s,647.4830396589823,648.4839400129858,648.476354172919,None,649.476121392916,649.6758692549774,649.476121392916,649.6758692549774,649.6758692549774,None,649.6758692549774,None,space,0.33554571005515754,649.6758692549774,None,0.1963,650.1417717579752,None,,,,,,,DEC017,001,2022_Nov_02_1439,2-25_cond_decay_EYE-try,2021.2.3,120.50999206878282,
left,0.75,1.0,0,0,0,0,0,3,0,3,0,1,4,14,3,,,,,,,,,,,,,,,1s,651.2001548849512,652.2013129899278,652.1930826789467,None,653.1929782968946,653.7180570219643,653.1929782968946,653.7180570219643,653.7093494120054,None,653.7093494120054,None,space,0.30017573304940015,653.7093494120054,None,0.5211,654.1346225478919,None,,,,,,,DEC017,001,2022_Nov_02_1439,2-25_cond_decay_EYE-try,2021.2.3,120.50999206878282,
right,1.0,0.75,0,0,0,0,0,3,0,3,0,1,5,15,1,,,,,,,,,,,,,,,1s,655.1995841879398,656.2012812809553,656.1838048979407,None,657.1846408859128,657.8179976239335,657.1846408859128,657.8179976239335,657.8179976239335,None,657.8179976239335,None,space,0.26681126991752535,657.8179976239335,None,0.6319,658.2091693429975,None,,,,,,,DEC017,001,2022_Nov_02_1439,2-25_cond_decay_EYE-try,2021.2.3,120.50999206878282,
left,0.75,1.0,0,0,0,0,0,3,0,3,0,1,6,16,4,,,,,,,,,,,,,,,1s,659.266477559926,660.2682615519734,660.2598178589251,None,661.2594209769741,661.4765436999733,661.2594209769741,661.4765436999733,661.4677848638967,None,661.4677848638967,None,space,0.3838352260645479,661.4677848638967,None,0.2094,661.9830027360003,None,,,,,,,DEC017,001,2022_Nov_02_1439,2-25_cond_decay_EYE-try,2021.2.3,120.50999206878282,
left,0.75,1.0,0,0,0,0,0,3,0,3,0,1,7,17,2,,,,,,,,,,,,,,,1s,663.0329578719102,664.0340923779877,664.0257193389116,None,665.0261277909158,665.8931636629859,665.0261277909158,665.8931636629859,665.8844289759872,None,665.8844289759872,None,space,0.31914736703038216,665.8844289759872,None,0.8614,666.3336643869989,None,,,,,,,DEC017,001,2022_Nov_02_1439,2-25_cond_decay_EYE-try,2021.2.3,120.50999206878282,
right,0.75,1.0,1,0,0,0,0,3,0,3,0,1,8,18,9,,,,,,,,,,,,,,,1s,667.3834834559821,668.3841169349616,668.3757528229617,None,669.3759226459078,669.9680213079555,669.3759226459078,669.9680213079555,669.9680213079555,None,669.9680213079555,None,space,0.30843356100376695,669.9680213079555,None,0.5914,670.4011509569827,None,,,,,,,DEC017,001,2022_Nov_02_1439,2-25_cond_decay_EYE-try,2021.2.3,120.50999206878282,
left,0.75,1.0,0,0,0,0,0,3,0,3,0,1,9,19,0,,,,,,,,,,,,,,,1s,671.457780359895,672.4590090269921,672.4424603539519,None,673.4429852489848,673.6260711109499,673.4429852489848,673.6260711109499,673.6260711109499,None,673.6260711109499,None,space,0.4774806060595438,673.6260711109499,None,0.1787,674.2330941659166,None,,,,,,,DEC017,001,2022_Nov_02_1439,2-25_cond_decay_EYE-try,2021.2.3,120.50999206878282,
,,,,0,0,0,0,3,0,3,0,,,,,,,,,,,,,,,,,,,,,,,,,,,,,,,,,,,,,,,,,,,,,DEC017,001,2022_Nov_02_1439,2-25_cond_decay_EYE-try,2021.2.3,120.50999206878282,
,,,,0,0,0,0,,,,,,,,,,,,,,,,,,,,,,,,,,,,,,,,,,,,,,,,,,,675.1249900109833,None,675.1249900109833,None,675.1249900109833,None,DEC017,001,2022_Nov_02_1439,2-25_cond_decay_EYE-try,2021.2.3,120.50999206878282,
right,1.0,0.75,0,1,0,1,0,0,0,0,0,0,0,0,4,,,,,,,,,680.124689719989,None,680.124689719989,None,680.124689719989,None,10s,694.9087054119445,695.9094297660049,695.9020361879375,None,696.8929521389073,698.868661664892,696.8929521389073,698.868661664892,698.868661664892,None,698.868661664892,None,space,0.3504975640680641,698.868661664892,None,1.9685,699.3506875119638,None,,,,,,,DEC017,001,2022_Nov_02_1439,2-25_cond_decay_EYE-try,2021.2.3,120.50999206878282,
right,1.0,0.75,0,1,0,1,0,0,0,0,0,0,1,1,1,,,,,,,,,,,,,,,10s,700.4002862239722,701.4009966499871,701.3930211619008,None,702.3935986359138,707.4595901349094,702.3935986359138,707.4595901349094,707.4595901349094,None,707.4595901349094,None,space,0.45240066095720977,707.4595901349094,None,5.0636,708.0421817929018,None,,,,,,,DEC017,001,2022_Nov_02_1439,2-25_cond_decay_EYE-try,2021.2.3,120.50999206878282,
left,0.75,1.0,0,1,0,1,0,0,0,0,0,0,2,2,6,,,,,,,,,,,,,,,10s,709.0920516989427,710.0935676229419,710.0854293250013,None,711.0846299859695,714.1183714289218,711.0846299859695,714.1183714289218,714.1096843689447,None,714.1096843689447,None,space,0.3507772810989991,714.1096843689447,None,3.029,714.5854956149124,None,,,,,,,DEC017,001,2022_Nov_02_1439,2-25_cond_decay_EYE-try,2021.2.3,120.50999206878282,
right,1.0,0.75,0,1,0,1,0,0,0,0,0,0,3,3,7,,,,,,,,,,,,,,,10s,715.6418140599271,716.6435678799171,716.6344673519488,None,717.6353075599764,718.4346035429044,717.6353075599764,718.4346035429044,718.4346035429044,None,718.4346035429044,None,space,0.45136270101647824,718.4346035429044,None,0.8005,719.0172510129632,None,,,,,,,DEC017,001,2022_Nov_02_1439,2-25_cond_decay_EYE-try,2021.2.3,120.50999206878282,
left,1.0,0.75,1,1,0,1,0,0,0,0,0,0,4,4,2,,,,,,,,,,,,,,,10s,720.0752671379596,721.0765845288988,721.06022187497,None,722.0604177549249,726.4180239499547,722.0604177549249,726.4180239499547,726.4180239499547,None,726.4180239499547,None,space,0.3443631900008768,726.4180239499547,None,4.3559,726.8926022029482,None,,,,,,,DEC017,001,2022_Nov_02_1439,2-25_cond_decay_EYE-try,2021.2.3,120.50999206878282,
right,1.0,0.75,0,1,0,1,0,0,0,0,0,0,5,5,8,,,,,,,,,,,,,,,10s,727.9418304269202,728.9433651529253,728.9352727539372,None,729.935177363921,732.4096480970038,729.935177363921,732.4096480970038,732.4096480970038,None,732.4096480970038,None,space,0.319513717899099,732.4096480970038,None,2.4741,732.8583281119354,None,,,,,,,DEC017,001,2022_Nov_02_1439,2-25_cond_decay_EYE-try,2021.2.3,120.50999206878282,
left,0.75,1.0,0,1,0,1,0,0,0,0,0,0,6,6,3,,,,,,,,,,,,,,,10s,733.9103881829651,734.909969177912,734.9025673929136,None,735.9021590559278,739.3772002389887,735.9021590559278,739.3772002389887,739.3772002389887,None,739.3772002389887,None,space,0.394293605000712,739.3772002389887,None,3.4753,739.9006478919182,None,,,,,,,DEC017,001,2022_Nov_02_1439,2-25_cond_decay_EYE-try,2021.2.3,120.50999206878282,
left,0.75,1.0,0,1,0,1,0,0,0,0,0,0,7,7,9,,,,,,,,,,,,,,,10s,740.9504974259762,741.9522303689737,741.9439777779626,None,742.9430440448923,748.1768107259413,742.9430440448923,748.1768107259413,748.1768107259413,None,748.1768107259413,None,space,0.3189055940601975,748.1768107259413,None,5.235,748.6188656908926,None,,,,,,,DEC017,001,2022_Nov_02_1439,2-25_cond_decay_EYE-try,2021.2.3,120.50999206878282,
right,0.75,1.0,1,1,0,1,0,0,0,0,0,0,8,8,0,,,,,,,,,,,,,,,10s,749.683650324936,750.6855642698938,750.6686158529483,None,751.6690955109661,759.0600440308917,751.6690955109661,759.0600440308917,759.0600440308917,None,759.0600440308917,None,space,0.38474702497478575,759.0600440308917,None,7.3885,759.5758294370025,None,,,,,,,DEC017,001,2022_Nov_02_1439,2-25_cond_decay_EYE-try,2021.2.3,120.50999206878282,
left,0.75,1.0,0,1,0,1,0,0,0,0,0,0,9,9,5,,,,,,,,,,,,,,,10s,760.6337591559859,761.6358622239204,761.6275798309362,None,762.627025129972,765.4022158589214,762.627025129972,765.4022158589214,765.3935546209104,None,765.3935546209104,None,space,0.360752766020596,765.3935546209104,None,2.7685,765.8843485399848,None,,,,,,,DEC017,001,2022_Nov_02_1439,2-25_cond_decay_EYE-try,2021.2.3,120.50999206878282,
right,0.75,1.0,1,1,0,1,0,0,0,0,0,1,0,10,0,,,,,,,,,,,,,,,10s,766.942638053908,767.9440260909032,767.9349980918923,None,768.9356967119966,774.0690550229046,768.9356967119966,774.0690550229046,774.0605071189348,None,774.0605071189348,None,space,0.3505149279953912,774.0605071189348,None,5.1271,774.5357617649715,None,,,,,,,DEC017,001,2022_Nov_02_1439,2-25_cond_decay_EYE-try,2021.2.3,120.50999206878282,
left,0.75,1.0,0,1,0,1,0,0,0,0,0,1,1,11,9,,,,,,,,,,,,,,,10s,775.5922470429214,776.59422640095,776.5776032329304,None,777.5767960828962,778.5355391158955,777.5767960828962,778.5355391158955,778.5355391158955,None,778.5355391158955,None,space,0.47541222895961255,778.5355391158955,None,0.9551,779.1354826129973,None,,,,,,,DEC017,001,2022_Nov_02_1439,2-25_cond_decay_EYE-try,2021.2.3,120.50999206878282,
right,1.0,0.75,0,1,0,1,0,0,0,0,0,1,2,12,7,,,,,,,,,,,,,,,10s,780.2008498279611,781.2029087489937,781.1937158919172,None,782.1946017720038,787.5438772089547,782.1946017720038,787.5438772089547,787.5438772089547,None,787.5438772089547,None,space,0.48403775598853827,787.5438772089547,None,5.3493,788.1523832249222,None,,,,,,,DEC017,001,2022_Nov_02_1439,2-25_cond_decay_EYE-try,2021.2.3,120.50999206878282,
right,1.0,0.75,0,1,0,1,0,0,0,0,0,1,3,13,1,,,,,,,,,,,,,,,10s,789.2095108289504,790.2107691419078,790.2026578579098,None,791.2025647419505,793.8771747580031,791.2025647419505,793.8771747580031,793.8771747580031,None,793.8771747580031,None,space,0.40294747706502676,793.8771747580031,None,2.6738,794.409659367986,None,,,,,,,DEC017,001,2022_Nov_02_1439,2-25_cond_decay_EYE-try,2021.2.3,120.50999206878282,
left,0.75,1.0,0,1,0,1,0,0,0,0,0,1,4,14,3,,,,,,,,,,,,,,,10s,795.4675468869973,796.469377286965,796.4611664719414,None,797.4606562069384,798.0612500719726,797.4606562069384,798.0612500719726,798.0523523360025,None,798.0523523360025,None,space,0.49464040307793766,798.0523523360025,None,0.5968,798.6758323929971,None,,,,,,,DEC017,001,2022_Nov_02_1439,2-25_cond_decay_EYE-try,2021.2.3,120.50999206878282,
left,1.0,0.75,1,1,0,1,0,0,0,0,0,1,5,15,2,,,,,,,,,,,,,,,10s,799.7276976299472,800.7277365319896,800.719498161925,None,801.719577185926,805.2440940008964,801.719577185926,805.2440940008964,805.2440940008964,None,805.2440940008964,None,None,,805.2440940008964,None,3.5206,806.3682233119616,None,,,,,,,DEC017,001,2022_Nov_02_1439,2-25_cond_decay_EYE-try,2021.2.3,120.50999206878282,
left,0.75,1.0,0,1,0,1,0,0,0,0,0,1,6,16,5,,,,,,,,,,,,,,,10s,807.4197311309399,808.4275132599287,808.4104284589412,None,809.4113804099616,811.2862842519535,809.4113804099616,811.2862842519535,811.2776391420048,None,811.2776391420048,None,space,0.40225441905204207,811.2776391420048,None,1.8676,811.8094803709537,None,,,,,,,DEC017,001,2022_Nov_02_1439,2-25_cond_decay_EYE-try,2021.2.3,120.50999206878282,
left,0.75,1.0,0,1,0,1,0,0,0,0,0,1,7,17,6,,,,,,,,,,,,,,,10s,812.8600410718936,813.8614153269446,813.8521435529692,None,814.8523123509949,819.5611380389892,814.8523123509949,819.5611380389892,819.5532222999027,None,819.5532222999027,None,space,0.39398169110063463,819.5532222999027,None,4.7048,820.0765891749179,None,,,,,,,DEC017,001,2022_Nov_02_1439,2-25_cond_decay_EYE-try,2021.2.3,120.50999206878282,
right,1.0,0.75,0,1,0,1,0,0,0,0,0,1,8,18,8,,,,,,,,,,,,,,,10s,821.1262890899088,822.1281476559816,822.1191054639639,None,823.1196495869663,826.3859653619584,823.1196495869663,826.3859653619584,826.3859653619584,None,826.3859653619584,None,space,0.31138649699278176,826.3859653619584,None,3.2657,826.8266074269777,None,,,,,,,DEC017,001,2022_Nov_02_1439,2-25_cond_decay_EYE-try,2021.2.3,120.50999206878282,
right,1.0,0.75,0,1,0,1,0,0,0,0,0,1,9,19,4,,,,,,,,,,,,,,,10s,827.8767495770007,828.8781724339351,828.8691158120055,None,829.86906523793,832.6948368089506,829.86906523793,832.6948368089506,832.6948368089506,None,832.6948368089506,None,space,0.668617793940939,832.6948368089506,None,2.8232,833.4934517199872,None,,,,,,,DEC017,001,2022_Nov_02_1439,2-25_cond_decay_EYE-try,2021.2.3,120.50999206878282,
,,,,1,0,1,0,0,0,0,0,,,,,,,,,,,,,,,,,,,,,,,,,,,,,,,,,,,,,,,,,,,,,DEC017,001,2022_Nov_02_1439,2-25_cond_decay_EYE-try,2021.2.3,120.50999206878282,
left,0.75,1.0,0,1,0,1,0,1,0,1,0,0,0,0,2,,,,,,,,,834.3852945319377,None,834.3852945319377,None,834.3852945319377,None,1s,872.4104761359049,873.4117099039722,873.4032530459808,None,874.4036202109419,874.7865975329187,874.4036202109419,874.7865975329187,874.7865975329187,None,874.7865975329187,None,None,,874.7865975329187,None,0.3815,875.910551040899,None,,,,,,,DEC017,001,2022_Nov_02_1439,2-25_cond_decay_EYE-try,2021.2.3,120.50999206878282,
left,1.0,0.75,1,1,0,1,0,1,0,1,0,0,1,1,8,,,,,,,,,,,,,,,1s,876.9602113339351,877.961789439898,877.9535380889429,None,878.9533407829003,879.6195365049643,878.9533407829003,879.6195365049643,879.6118632559665,None,879.6118632559665,None,space,0.3196360080037266,879.6118632559665,None,0.6603,880.0609555479605,None,,,,,,,DEC017,001,2022_Nov_02_1439,2-25_cond_decay_EYE-try,2021.2.3,120.50999206878282,
right,1.0,0.75,0,1,0,1,0,1,0,1,0,0,2,2,7,,,,,,,,,,,,,,,1s,881.1109879038995,882.1116517569171,882.1034447510028,None,883.1032819439424,884.0372764959466,883.1032819439424,884.0372764959466,884.0372764959466,None,884.0372764959466,None,space,0.3251916590379551,884.0372764959466,None,0.9327,884.487189236912,None,,,,,,,DEC017,001,2022_Nov_02_1439,2-25_cond_decay_EYE-try,2021.2.3,120.50999206878282,
right,1.0,0.75,0,1,0,1,0,1,0,1,0,0,3,3,1,,,,,,,,,,,,,,,1s,885.5436339220032,886.5454427209916,886.5286518209614,None,887.5281655329745,888.0450802209089,887.5281655329745,888.0450802209089,888.0450802209089,None,888.0450802209089,None,space,0.31692038499750197,888.0450802209089,None,0.5158,888.4865466229385,None,,,,,,,DEC017,001,2022_Nov_02_1439,2-25_cond_decay_EYE-try,2021.2.3,120.50999206878282,
left,0.75,1.0,0,1,0,1,0,1,0,1,0,0,4,4,4,,,,,,,,,,,,,,,1s,889.5447888649069,890.5451948699774,890.5366059899097,None,891.5363838109188,892.0454570099246,891.5363838109188,892.0454570099246,892.0454570099246,None,892.0454570099246,None,space,0.33318230404984206,892.0454570099246,None,0.5077,892.5031758259283,None,,,,,,,DEC017,001,2022_Nov_02_1439,2-25_cond_decay_EYE-try,2021.2.3,120.50999206878282,
right,1.0,0.75,0,1,0,1,0,1,0,1,0,0,5,5,5,,,,,,,,,,,,,,,1s,893.5691696939757,894.5706879479112,894.5615803239634,None,895.5613729229663,896.1949676269433,895.5613729229663,896.1949676269433,896.1949676269433,None,896.1949676269433,None,space,0.2863714899867773,896.1949676269433,None,0.6346,896.6103382610017,None,,,,,,,DEC017,001,2022_Nov_02_1439,2-25_cond_decay_EYE-try,2021.2.3,120.50999206878282,
left,0.75,1.0,0,1,0,1,0,1,0,1,0,0,6,6,0,,,,,,,,,,,,,,,1s,897.6604785799282,898.6623463539872,898.6540030379547,None,899.6536183489952,899.8867939868942,899.6536183489952,899.8867939868942,899.8791610629996,None,899.8791610629996,None,space,0.41910467599518597,899.8791610629996,None,0.2315,900.427722898894,None,,,,,,,DEC017,001,2022_Nov_02_1439,2-25_cond_decay_EYE-try,2021.2.3,120.50999206878282,
right,0.75,1.0,1,1,0,1,0,1,0,1,0,0,7,7,3,,,,,,,,,,,,,,,1s,901.4860025759554,902.4865618469194,902.4704863849329,None,903.469930503983,903.703343838919,903.469930503983,903.703343838919,903.703343838919,None,903.703343838919,None,space,0.32790883001871407,903.703343838919,None,0.2286,904.1609405699419,None,,,,,,,DEC017,001,2022_Nov_02_1439,2-25_cond_decay_EYE-try,2021.2.3,120.50999206878282,
right,1.0,0.75,0,1,0,1,0,1,0,1,0,0,8,8,9,,,,,,,,,,,,,,,1s,905.2108866419876,906.2124174139462,906.2033298969036,None,907.2040784949204,907.9951888649957,907.2040784949204,907.9951888649957,907.9951888649957,None,907.9951888649957,None,space,0.260642966022715,907.9951888649957,None,0.7883,908.3857685979456,None,,,,,,,DEC017,001,2022_Nov_02_1439,2-25_cond_decay_EYE-try,2021.2.3,120.50999206878282,
left,0.75,1.0,0,1,0,1,0,1,0,1,0,0,9,9,6,,,,,,,,,,,,,,,1s,909.4440980319632,910.4456471389858,910.4374922299758,None,911.4369412699016,911.8204460069537,911.4369412699016,911.8204460069537,911.8120599139947,None,911.8120599139947,None,space,0.2943191500380635,911.8120599139947,None,0.3763,912.2361210669624,None,,,,,,,DEC017,001,2022_Nov_02_1439,2-25_cond_decay_EYE-try,2021.2.3,120.50999206878282,
right,0.75,1.0,1,1,0,1,0,1,0,1,0,1,0,10,3,,,,,,,,,,,,,,,1s,913.2938758259406,914.2952140569687,914.2870869389735,None,915.2871099539334,916.1706214869628,915.2871099539334,916.1706214869628,916.1706214869628,None,916.1706214869628,None,space,0.31064291892107576,916.1706214869628,None,0.883,916.6113657299429,None,,,,,,,DEC017,001,2022_Nov_02_1439,2-25_cond_decay_EYE-try,2021.2.3,120.50999206878282,
left,0.75,1.0,0,1,0,1,0,1,0,1,0,1,1,11,0,,,,,,,,,,,,,,,1s,917.6606493659783,918.6623959169956,918.6456068028929,None,919.6450842379127,919.8870903739007,919.6450842379127,919.8870903739007,919.8870903739007,None,919.8870903739007,None,space,0.3942576500121504,919.8870903739007,None,0.2366,920.411342301988,None,,,,,,,DEC017,001,2022_Nov_02_1439,2-25_cond_decay_EYE-try,2021.2.3,120.50999206878282,
left,0.75,1.0,0,1,0,1,0,1,0,1,0,1,2,12,4,,,,,,,,,,,,,,,1s,921.4621191929327,922.4621887449175,922.4540178099414,None,923.4534607928945,923.8625201069517,923.4534607928945,923.8625201069517,923.8625201069517,None,923.8625201069517,None,space,0.26065321604255587,923.8625201069517,None,0.4085,924.2524714079918,None,,,,,,,DEC017,001,2022_Nov_02_1439,2-25_cond_decay_EYE-try,2021.2.3,120.50999206878282,
right,1.0,0.75,0,1,0,1,0,1,0,1,0,1,3,13,1,,,,,,,,,,,,,,,1s,925.3110236509237,926.3124928169418,926.3041096319212,None,927.3039670359576,927.9703792799264,927.3039670359576,927.9703792799264,927.9703792799264,None,927.9703792799264,None,space,0.34400293498765677,927.9703792799264,None,0.6671,928.4443853279809,None,,,,,,,DEC017,001,2022_Nov_02_1439,2-25_cond_decay_EYE-try,2021.2.3,120.50999206878282,
left,0.75,1.0,0,1,0,1,0,1,0,1,0,1,4,14,2,,,,,,,,,,,,,,,1s,929.5031864820048,930.504014326958,930.4872556979535,None,931.48703672993,932.078931408003,931.48703672993,932.078931408003,932.078931408003,None,932.078931408003,None,space,0.2751907070633024,932.078931408003,None,0.5859,932.4863294999814,None,,,,,,,DEC017,001,2022_Nov_02_1439,2-25_cond_decay_EYE-try,2021.2.3,120.50999206878282,
right,1.0,0.75,0,1,0,1,0,1,0,1,0,1,5,15,7,,,,,,,,,,,,,,,1s,933.5449541339185,934.5460229970049,934.5370524169412,None,935.5371249199379,936.479162906995,935.5371249199379,936.479162906995,936.47037437791,None,936.47037437791,None,space,0.2672649520682171,936.47037437791,None,0.9345,936.862019225955,None,,,,,,,DEC017,001,2022_Nov_02_1439,2-25_cond_decay_EYE-try,2021.2.3,120.50999206878282,
left,0.75,1.0,0,1,0,1,0,1,0,1,0,1,6,16,6,,,,,,,,,,,,,,,1s,937.927634994965,938.9289304279955,938.9125121949473,None,939.9128144739661,940.2536003859714,939.9128144739661,940.2536003859714,940.2536003859714,None,940.2536003859714,None,space,0.3861400210298598,940.2536003859714,None,0.3393,940.7694088969147,None,,,,,,,DEC017,001,2022_Nov_02_1439,2-25_cond_decay_EYE-try,2021.2.3,120.50999206878282,
right,1.0,0.75,0,1,0,1,0,1,0,1,0,1,7,17,9,,,,,,,,,,,,,,,1s,941.8296531829983,942.8290181589546,942.8204812259646,None,943.8206549299648,944.1792579399189,943.8206549299648,944.1792579399189,944.1705286849756,None,944.1705286849756,None,space,0.34470751392655075,944.1705286849756,None,0.3513,944.6439596309792,None,,,,,,,DEC017,001,2022_Nov_02_1439,2-25_cond_decay_EYE-try,2021.2.3,120.50999206878282,
left,1.0,0.75,1,1,0,1,0,1,0,1,0,1,8,18,8,,,,,,,,,,,,,,,1s,945.7027622299502,946.7038152399473,946.6953773970017,None,947.6956544260029,948.0040415138938,947.6956544260029,948.0040415138938,948.0040415138938,None,948.0040415138938,None,space,0.3022752159740776,948.0040415138938,None,0.3085,948.4359701449284,None,,,,,,,DEC017,001,2022_Nov_02_1439,2-25_cond_decay_EYE-try,2021.2.3,120.50999206878282,
right,1.0,0.75,0,1,0,1,0,1,0,1,0,1,9,19,5,,,,,,,,,,,,,,,1s,949.4946164669236,950.4957882759627,950.4874402579153,None,951.4877355269855,951.7623933509458,951.4877355269855,951.7623933509458,951.7623933509458,None,951.7623933509458,None,space,0.2948263610014692,951.7623933509458,None,0.2737,952.1864375299774,None,,,,,,,DEC017,001,2022_Nov_02_1439,2-25_cond_decay_EYE-try,2021.2.3,120.50999206878282,
,,,,1,0,1,0,1,0,1,0,,,,,,,,,,,,,,,,,,,,,,,,,,,,,,,,,,,,,,,,,,,,,DEC017,001,2022_Nov_02_1439,2-25_cond_decay_EYE-try,2021.2.3,120.50999206878282,
left,0.75,1.0,0,1,0,1,0,2,0,2,0,0,0,0,1,,,,,,,,,953.0774675749708,None,953.0774675749708,None,953.0774675749708,None,3s,969.487297110958,970.4874490019865,970.4791273409501,None,971.4796341059264,971.8711623299168,971.4796341059264,971.8711623299168,971.8711623299168,None,971.8711623299168,None,space,0.39439712604507804,971.8711623299168,None,0.3896,972.3950320369331,None,,,,,,,DEC017,001,2022_Nov_02_1439,2-25_cond_decay_EYE-try,2021.2.3,120.50999206878282,
right,1.0,0.75,0,1,0,1,0,2,0,2,0,0,1,1,7,,,,,,,,,,,,,,,3s,973.4448654579464,974.4455723209539,974.4375164589146,None,975.4374680699548,976.3373744519195,975.4374680699548,976.3373744519195,976.329662215896,None,976.329662215896,None,space,0.3025039780186489,976.329662215896,None,0.8969,976.7614573868923,None,,,,,,,DEC017,001,2022_Nov_02_1439,2-25_cond_decay_EYE-try,2021.2.3,120.50999206878282,
left,0.75,1.0,0,1,0,1,0,2,0,2,0,0,2,2,4,,,,,,,,,,,,,,,3s,977.8199662308907,978.8215844089864,978.8132768329233,None,979.8124627189245,982.2208944469457,979.8124627189245,982.2208944469457,982.2130864759674,None,982.2130864759674,None,space,0.35024655202869326,982.2130864759674,None,2.4025,982.6949455899885,None,,,,,,,DEC017,001,2022_Nov_02_1439,2-25_cond_decay_EYE-try,2021.2.3,120.50999206878282,
right,1.0,0.75,0,1,0,1,0,2,0,2,0,0,3,3,5,,,,,,,,,,,,,,,3s,983.7448055209825,984.7462986519095,984.7382872119779,None,985.7382483358961,988.3717092419975,985.7382483358961,988.3717092419975,988.3630257919431,None,988.3630257919431,None,space,0.3354659309843555,988.3630257919431,None,2.6275,988.828678810969,None,,,,,,,DEC017,001,2022_Nov_02_1439,2-25_cond_decay_EYE-try,2021.2.3,120.50999206878282,
left,1.0,0.75,1,1,0,1,0,2,0,2,0,0,4,4,9,,,,,,,,,,,,,,,3s,989.8871838469058,990.8874435689067,990.8715165959438,None,991.871211321908,992.9209619979374,991.871211321908,992.9209619979374,992.9209619979374,None,992.9209619979374,None,space,0.4511564790736884,992.9209619979374,None,1.048,993.5038615769008,None,,,,,,,DEC017,001,2022_Nov_02_1439,2-25_cond_decay_EYE-try,2021.2.3,120.50999206878282,
left,0.75,1.0,0,1,0,1,0,2,0,2,0,0,5,5,6,,,,,,,,,,,,,,,3s,994.5531602399424,995.5542118879966,995.546054276987,None,996.5464250039076,997.3046019549947,996.5464250039076,997.3046019549947,997.3046019549947,None,997.3046019549947,None,space,0.3697005540598184,997.3046019549947,None,0.7595,997.8036691539455,None,,,,,,,DEC017,001,2022_Nov_02_1439,2-25_cond_decay_EYE-try,2021.2.3,120.50999206878282,
right,1.0,0.75,0,1,0,1,0,2,0,2,0,0,6,6,8,,,,,,,,,,,,,,,3s,998.862185867969,999.8627922219457,999.8542780359276,None,1000.8552332560066,1003.5047827509698,1000.8552332560066,1003.5047827509698,1003.4961102469824,None,1003.4961102469824,None,space,0.3861902420176193,1003.4961102469824,None,2.6457,1004.0117939439369,None,,,,,,,DEC017,001,2022_Nov_02_1439,2-25_cond_decay_EYE-try,2021.2.3,120.50999206878282,
right,0.75,1.0,1,1,0,1,0,2,0,2,0,0,7,7,3,,,,,,,,,,,,,,,3s,1005.0630791969597,1006.0631318319356,1006.0542041269364,None,1007.0542438159464,1008.9051777259447,1007.0542438159464,1008.9051777259447,1008.9051777259447,None,1008.9051777259447,None,space,0.45885334408376366,1008.9051777259447,None,1.851,1009.4880013379734,None,,,,,,,DEC017,001,2022_Nov_02_1439,2-25_cond_decay_EYE-try,2021.2.3,120.50999206878282,
left,0.75,1.0,0,1,0,1,0,2,0,2,0,0,8,8,2,,,,,,,,,,,,,,,3s,1010.5530958150048,1011.5551982899196,1011.5462077929405,None,1012.5460077049211,1013.7884728509234,1012.5460077049211,1013.7884728509234,1013.7799115239177,None,1013.7799115239177,None,space,0.3358124940423295,1013.7799115239177,None,1.2407,1014.2452108779689,None,,,,,,,DEC017,001,2022_Nov_02_1439,2-25_cond_decay_EYE-try,2021.2.3,120.50999206878282,
right,1.0,0.75,0,1,0,1,0,2,0,2,0,0,9,9,0,,,,,,,,,,,,,,,3s,1015.3034532238962,1016.3050734199351,1016.2880728289019,None,1017.287967915996,1020.2294316369807,1017.287967915996,1020.2294316369807,1020.2294316369807,None,1020.2294316369807,None,space,0.3341635260730982,1020.2294316369807,None,2.9355,1020.688024144969,None,,,,,,,DEC017,001,2022_Nov_02_1439,2-25_cond_decay_EYE-try,2021.2.3,120.50999206878282,
right,1.0,0.75,0,1,0,1,0,2,0,2,0,1,0,10,8,,,,,,,,,,,,,,,3s,1021.7455326949712,1022.746584881912,1022.738208633964,None,1023.7385644319002,1023.9634914259659,1023.7385644319002,1023.9634914259659,1023.9634914259659,None,1023.9634914259659,None,space,0.4778103500138968,1023.9634914259659,None,0.2249,1024.5699824040057,None,,,,,,,DEC017,001,2022_Nov_02_1439,2-25_cond_decay_EYE-try,2021.2.3,120.50999206878282,
right,1.0,0.75,0,1,0,1,0,2,0,2,0,1,1,11,7,,,,,,,,,,,,,,,3s,1025.6198374029482,1026.6219921869924,1026.6130819289247,None,1027.6137001559837,1029.3212889409624,1027.6137001559837,1029.3212889409624,1029.3212889409624,None,1029.3212889409624,None,space,0.32791154994629323,1029.3212889409624,None,1.7071,1029.7786643319996,None,,,,,,,DEC017,001,2022_Nov_02_1439,2-25_cond_decay_EYE-try,2021.2.3,120.50999206878282,
left,0.75,1.0,0,1,0,1,0,2,0,2,0,1,2,12,1,,,,,,,,,,,,,,,3s,1030.8283954389626,1031.8297066929517,1031.8214567339746,None,1032.821223226958,1033.6302926199278,1032.821223226958,1033.6302926199278,1033.6302926199278,None,1033.6302926199278,None,space,0.29149149102158844,1033.6302926199278,None,0.8053,1034.0541231699754,None,,,,,,,DEC017,001,2022_Nov_02_1439,2-25_cond_decay_EYE-try,2021.2.3,120.50999206878282,
right,1.0,0.75,0,1,0,1,0,2,0,2,0,1,3,13,5,,,,,,,,,,,,,,,3s,1035.1122243260033,1036.1137198109645,1036.104925034917,None,1037.105040733004,1038.9387958419975,1037.105040733004,1038.9387958419975,1038.9303111919435,None,1038.9303111919435,None,space,0.31884170207194984,1038.9303111919435,None,1.8273,1039.3791289639194,None,,,,,,,DEC017,001,2022_Nov_02_1439,2-25_cond_decay_EYE-try,2021.2.3,120.50999206878282,
left,0.75,1.0,0,1,0,1,0,2,0,2,0,1,4,14,2,,,,,,,,,,,,,,,3s,1040.4369683769764,1041.4387255449547,1041.4296798799187,None,1042.4296489598928,1044.1724078619154,1042.4296489598928,1044.1724078619154,1044.1634660529671,None,1044.1634660529671,None,space,0.3835403739940375,1044.1634660529671,None,1.7405,1044.6789902249584,None,,,,,,,DEC017,001,2022_Nov_02_1439,2-25_cond_decay_EYE-try,2021.2.3,120.50999206878282,
left,1.0,0.75,1,1,0,1,0,2,0,2,0,1,5,15,9,,,,,,,,,,,,,,,3s,1045.7293294479605,1046.7303403539117,1046.721967844991,None,1047.7223168619676,1050.1305630359566,1047.7223168619676,1050.1305630359566,1050.1305630359566,None,1050.1305630359566,None,space,0.36716508807148784,1050.1305630359566,None,2.4051,1050.6286992059322,None,,,,,,,DEC017,001,2022_Nov_02_1439,2-25_cond_decay_EYE-try,2021.2.3,120.50999206878282,
right,1.0,0.75,0,1,0,1,0,2,0,2,0,1,6,16,0,,,,,,,,,,,,,,,3s,1051.687798537896,1052.6885078389896,1052.6799570659641,None,1053.6801475939574,1056.1215656949207,1053.6801475939574,1056.1215656949207,1056.1137567709666,None,1056.1137567709666,None,space,0.3773786500096321,1056.1137567709666,None,2.4387,1056.621139721945,None,,,,,,,DEC017,001,2022_Nov_02_1439,2-25_cond_decay_EYE-try,2021.2.3,120.50999206878282,
left,0.75,1.0,0,1,0,1,0,2,0,2,0,1,7,17,6,,,,,,,,,,,,,,,3s,1057.6792937288992,1058.6803567669122,1058.671782157966,None,1059.6714739039307,1061.3884269970004,1059.6714739039307,1061.3884269970004,1061.3884269970004,None,1061.3884269970004,None,space,0.35908901400398463,1061.3884269970004,None,1.7144,1061.8725613079732,None,,,,,,,DEC017,001,2022_Nov_02_1439,2-25_cond_decay_EYE-try,2021.2.3,120.50999206878282,
right,0.75,1.0,1,1,0,1,0,2,0,2,0,1,8,18,3,,,,,,,,,,,,,,,3s,1062.9371484799776,1063.9385159929516,1063.930307906936,None,1064.9303655679105,1066.805687631946,1064.9303655679105,1066.805687631946,1066.7969967499375,None,1066.7969967499375,None,space,0.3924158589215949,1066.7969967499375,None,1.8691,1067.320898938924,None,,,,,,,DEC017,001,2022_Nov_02_1439,2-25_cond_decay_EYE-try,2021.2.3,120.50999206878282,
left,0.75,1.0,0,1,0,1,0,2,0,2,0,1,9,19,4,,,,,,,,,,,,,,,3s,1068.3712953119539,1069.3721983779687,1069.3638527689036,None,1070.364318174892,1071.7721024919301,1070.364318174892,1071.7721024919301,1071.7721024919301,None,1071.7721024919301,None,space,0.40089376899413764,1071.7721024919301,None,1.4065,1072.297352286987,None,,,,,,,DEC017,001,2022_Nov_02_1439,2-25_cond_decay_EYE-try,2021.2.3,120.50999206878282,
,,,,1,0,1,0,2,0,2,0,,,,,,,,,,,,,,,,,,,,,,,,,,,,,,,,,,,,,,,,,,,,,DEC017,001,2022_Nov_02_1439,2-25_cond_decay_EYE-try,2021.2.3,120.50999206878282,
right,1.0,0.75,0,1,0,1,0,3,0,3,0,0,0,0,6,,,,,,,,,1073.1956305139465,None,1073.1956305139465,None,1073.1956305139465,None,5s,1083.454488136922,1084.4554014099995,1084.447211658,None,1085.4470188989071,1087.0225243519526,1085.4470188989071,1087.0225243519526,1087.014010532992,None,1087.014010532992,None,space,0.32566534099169075,1087.014010532992,None,1.5701,1087.4713026179234,None,,,,,,,DEC017,001,2022_Nov_02_1439,2-25_cond_decay_EYE-try,2021.2.3,120.50999206878282,
left,0.75,1.0,0,1,0,1,0,3,0,3,0,0,1,1,7,,,,,,,,,,,,,,,5s,1088.522501108935,1089.5222994829528,1089.5143864869606,None,1090.5141282139812,1091.0144202719675,1090.5141282139812,1091.0144202719675,1091.0144202719675,None,1091.0144202719675,None,space,0.32528143003582954,1091.0144202719675,None,0.4925,1091.4713129579322,None,,,,,,,DEC017,001,2022_Nov_02_1439,2-25_cond_decay_EYE-try,2021.2.3,120.50999206878282,
left,0.75,1.0,0,1,0,1,0,3,0,3,0,0,2,2,1,,,,,,,,,,,,,,,5s,1092.5290322490036,1093.5309065720066,1093.5222498059738,None,1094.522301260964,1096.0305816848995,1094.522301260964,1096.0305816848995,1096.0305816848995,None,1096.0305816848995,None,space,0.3092296920949593,1096.0305816848995,None,1.5078,1096.470719346893,None,,,,,,,DEC017,001,2022_Nov_02_1439,2-25_cond_decay_EYE-try,2021.2.3,120.50999206878282,
right,1.0,0.75,0,1,0,1,0,3,0,3,0,0,3,3,8,,,,,,,,,,,,,,,5s,1097.5292538219364,1098.5304204939166,1098.522063073935,None,1099.52284709597,1102.2970637009712,1099.52284709597,1102.2970637009712,1102.2891833139583,None,1102.2891833139583,None,space,0.3941961759701371,1102.2891833139583,None,2.7684,1102.8129694839008,None,,,,,,,DEC017,001,2022_Nov_02_1439,2-25_cond_decay_EYE-try,2021.2.3,120.50999206878282,
right,1.0,0.75,0,1,0,1,0,3,0,3,0,0,4,4,4,,,,,,,,,,,,,,,5s,1103.8629501078976,1104.8639080299763,1104.8554023859324,None,1105.8559507419122,1110.3728069219505,1105.8559507419122,1110.3728069219505,1110.3641236328986,None,1110.3641236328986,None,space,0.38375707098748535,1110.3641236328986,None,4.5098,1110.8714790429221,None,,,,,,,DEC017,001,2022_Nov_02_1439,2-25_cond_decay_EYE-try,2021.2.3,120.50999206878282,
right,1.0,0.75,0,1,0,1,0,3,0,3,0,0,5,5,9,,,,,,,,,,,,,,,5s,1111.9297336529708,1112.9306973139755,1112.9228570119012,None,1113.9226657609688,1118.7888461349066,1113.9226657609688,1118.7888461349066,1118.7812472459627,None,1118.7812472459627,None,space,0.35855797200929374,1118.7812472459627,None,4.8608,1119.2711229179986,None,,,,,,,DEC017,001,2022_Nov_02_1439,2-25_cond_decay_EYE-try,2021.2.3,120.50999206878282,
left,1.0,0.75,1,1,0,1,0,3,0,3,0,0,6,6,0,,,,,,,,,,,,,,,5s,1120.3293919409625,1121.3309237719513,1121.3224940489745,None,1122.3225275879959,1126.0807438419433,1122.3225275879959,1126.0807438419433,1126.0807438419433,None,1126.0807438419433,None,space,0.33640717901289463,1126.0807438419433,None,3.7534,1126.5459916279651,None,,,,,,,DEC017,001,2022_Nov_02_1439,2-25_cond_decay_EYE-try,2021.2.3,120.50999206878282,
right,0.75,1.0,1,1,0,1,0,3,0,3,0,0,7,7,5,,,,,,,,,,,,,,,5s,1127.6044957468985,1128.6062185689807,1128.5977355309296,None,1129.5975502379006,1131.7731484069955,1129.5975502379006,1131.7731484069955,1131.7644851199584,None,1131.7644851199584,None,space,0.41956762003246695,1131.7644851199584,None,2.1709,1132.313641503919,None,,,,,,,DEC017,001,2022_Nov_02_1439,2-25_cond_decay_EYE-try,2021.2.3,120.50999206878282,
right,1.0,0.75,0,1,0,1,0,3,0,3,0,0,8,8,3,,,,,,,,,,,,,,,5s,1133.371621175902,1134.3729635250056,1134.3644343209453,None,1135.3648030229378,1138.6646672129864,1135.3648030229378,1138.6646672129864,1138.6559453279478,None,1138.6559453279478,None,space,0.386557086952962,1138.6559453279478,None,3.298,1139.1710889189271,None,,,,,,,DEC017,001,2022_Nov_02_1439,2-25_cond_decay_EYE-try,2021.2.3,120.50999206878282,
left,0.75,1.0,0,1,0,1,0,3,0,3,0,0,9,9,2,,,,,,,,,,,,,,,5s,1140.221444889903,1141.2230641169008,1141.2140781839844,None,1142.2143894089386,1143.2142708199099,1142.2143894089386,1143.2142708199099,1143.2142708199099,None,1143.2142708199099,None,space,0.46101536601781845,1143.2142708199099,None,1.0003,1143.8047493229387,None,,,,,,,DEC017,001,2022_Nov_02_1439,2-25_cond_decay_EYE-try,2021.2.3,120.50999206878282,
right,1.0,0.75,0,1,0,1,0,3,0,3,0,1,0,10,8,,,,,,,,,,,,,,,5s,1144.8634947529063,1145.864529242972,1145.8560675709741,None,1146.856176309986,1148.731225001975,1146.856176309986,1148.731225001975,1148.731225001975,None,1148.731225001975,None,space,0.3191331959096715,1148.731225001975,None,1.8741,1149.1796411789255,None,,,,,,,DEC017,001,2022_Nov_02_1439,2-25_cond_decay_EYE-try,2021.2.3,120.50999206878282,
right,1.0,0.75,0,1,0,1,0,3,0,3,0,1,1,11,9,,,,,,,,,,,,,,,5s,1150.2311095969053,1151.2314549509902,1151.2225293319207,None,1152.223446246935,1155.3985365550034,1152.223446246935,1155.3985365550034,1155.3985365550034,None,1155.3985365550034,None,space,0.33363299001939595,1155.3985365550034,None,3.1755,1155.8566755219363,None,,,,,,,DEC017,001,2022_Nov_02_1439,2-25_cond_decay_EYE-try,2021.2.3,120.50999206878282,
right,1.0,0.75,0,1,0,1,0,3,0,3,0,1,2,12,3,,,,,,,,,,,,,,,5s,1156.9131759259617,1157.9143051649444,1157.8983212619787,None,1158.8977797819534,1163.0728702509077,1158.8977797819534,1163.0728702509077,1163.0728702509077,None,1163.0728702509077,None,space,0.39448951405938715,1163.0728702509077,None,4.1723,1163.596663067001,None,,,,,,,DEC017,001,2022_Nov_02_1439,2-25_cond_decay_EYE-try,2021.2.3,120.50999206878282,
right,0.75,1.0,1,1,0,1,0,3,0,3,0,1,3,13,5,,,,,,,,,,,,,,,5s,1164.6477834309917,1165.6483493029373,1165.6402386849513,None,1166.6400119959144,1171.0903916029492,1166.6400119959144,1171.0903916029492,1171.0903916029492,None,1171.0903916029492,None,space,0.3850060380063951,1171.0903916029492,None,4.447,1171.6054030079395,None,,,,,,,DEC017,001,2022_Nov_02_1439,2-25_cond_decay_EYE-try,2021.2.3,120.50999206878282,
left,1.0,0.75,1,1,0,1,0,3,0,3,0,1,4,14,0,,,,,,,,,,,,,,,5s,1172.6635146189947,1173.6645707580028,1173.6477917579468,None,1174.6480445379857,1178.3651837829966,1174.6480445379857,1178.3651837829966,1178.3651837829966,None,1178.3651837829966,None,space,0.4442185970256105,1178.3651837829966,None,3.7101,1178.9380940659903,None,,,,,,,DEC017,001,2022_Nov_02_1439,2-25_cond_decay_EYE-try,2021.2.3,120.50999206878282,
left,0.75,1.0,0,1,0,1,0,3,0,3,0,1,5,15,2,,,,,,,,,,,,,,,5s,1179.9903614189243,1180.9901993999956,1180.982027664897,None,1181.9817343259929,1185.6898300088942,1181.9817343259929,1185.6898300088942,1185.6898300088942,None,1185.6898300088942,None,space,0.4424737240187824,1185.6898300088942,None,3.7073,1186.2632567510009,None,,,,,,,DEC017,001,2022_Nov_02_1439,2-25_cond_decay_EYE-try,2021.2.3,120.50999206878282,
right,1.0,0.75,0,1,0,1,0,3,0,3,0,1,6,16,4,,,,,,,,,,,,,,,5s,1187.3225711529376,1188.3231565268943,1188.3149195549777,None,1189.315107434988,1192.298705317895,1189.315107434988,1192.298705317895,1192.2901179989567,None,1192.2901179989567,None,space,0.3773972070775926,1192.2901179989567,None,2.9767,1192.797622209997,None,,,,,,,DEC017,001,2022_Nov_02_1439,2-25_cond_decay_EYE-try,2021.2.3,120.50999206878282,
left,0.75,1.0,0,1,0,1,0,3,0,3,0,1,7,17,7,,,,,,,,,,,,,,,5s,1193.847483802936,1194.849010113976,1194.831522919936,None,1195.8316185799194,1200.2819706900045,1195.8316185799194,1200.2819706900045,1200.2732342359377,None,1200.2732342359377,None,space,0.33595499803777784,1200.2732342359377,None,4.443,1200.738516048994,None,,,,,,,DEC017,001,2022_Nov_02_1439,2-25_cond_decay_EYE-try,2021.2.3,120.50999206878282,
left,0.75,1.0,0,1,0,1,0,3,0,3,0,1,8,18,6,,,,,,,,,,,,,,,5s,1201.7887570789317,1202.7899001319893,1202.781528304913,None,1203.7814730879618,1204.8072166959755,1203.7814730879618,1204.8072166959755,1204.7986622139579,None,1204.7986622139579,None,space,0.5256216860143468,1204.7986622139579,None,1.0203,1205.448260890902,None,,,,,,,DEC017,001,2022_Nov_02_1439,2-25_cond_decay_EYE-try,2021.2.3,120.50999206878282,
left,0.75,1.0,0,1,0,1,0,3,0,3,0,1,9,19,1,,,,,,,,,,,,,,,5s,1206.5060108739417,1207.5068087329855,1207.498189649894,None,1208.4983423619997,1210.5066417299677,1208.4983423619997,1210.5066417299677,1210.5066417299677,None,1210.5066417299677,None,space,0.36984436004422605,1210.5066417299677,None,2.0072,1211.0060535490047,None,,,,,,,DEC017,001,2022_Nov_02_1439,2-25_cond_decay_EYE-try,2021.2.3,120.50999206878282,
,,,,1,0,1,0,3,0,3,0,,,,,,,,,,,,,,,,,,,,,,,,,,,,,,,,,,,,,,,,,,,,,DEC017,001,2022_Nov_02_1439,2-25_cond_decay_EYE-try,2021.2.3,120.50999206878282,
,,,,1,0,1,0,,,,,,,,,,,,,,,,,,,,,,,,,,,,,,,,,,,,,,,,,,,1211.8977983099176,None,1211.8977983099176,None,1211.8977983099176,None,DEC017,001,2022_Nov_02_1439,2-25_cond_decay_EYE-try,2021.2.3,120.50999206878282,
right,0.75,1.0,1,2,0,2,0,0,0,0,0,0,0,0,9,,,,,,,,,1216.897518480895,None,1216.897518480895,None,1216.897518480895,None,1s,1233.5066316719167,1234.5077348538907,1234.4903724769829,None,1235.4901180709712,1235.7241767039523,1235.4901180709712,1235.7241767039523,1235.7241767039523,None,1235.7241767039523,None,space,0.5499195450684056,1235.7241767039523,None,0.2301,1236.3992331649642,None,,,,,,,DEC017,001,2022_Nov_02_1439,2-25_cond_decay_EYE-try,2021.2.3,120.50999206878282,
right,1.0,0.75,0,2,0,2,0,0,0,0,0,0,1,1,6,,,,,,,,,,,,,,,1s,1237.4568479768932,1238.4575416879961,1238.4492340720026,None,1239.4487470499007,1239.9822920518927,1239.4487470499007,1239.9822920518927,1239.9822920518927,None,1239.9822920518927,None,space,0.27719475398771465,1239.9822920518927,None,0.5292,1240.3895701839356,None,,,,,,,DEC017,001,2022_Nov_02_1439,2-25_cond_decay_EYE-try,2021.2.3,120.50999206878282,
left,1.0,0.75,1,2,0,2,0,0,0,0,0,0,2,2,5,,,,,,,,,,,,,,,1s,1241.438968996983,1242.4404993070057,1242.4240182469366,None,1243.4242331319256,1243.7323177019134,1243.4242331319256,1243.7323177019134,1243.7323177019134,None,1243.7323177019134,None,space,0.3338274370180443,1243.7323177019134,None,0.3012,1244.1901500759413,None,,,,,,,DEC017,001,2022_Nov_02_1439,2-25_cond_decay_EYE-try,2021.2.3,120.50999206878282,
right,1.0,0.75,0,2,0,2,0,0,0,0,0,0,3,3,8,,,,,,,,,,,,,,,1s,1245.2562211669283,1246.257756742998,1246.249383826973,None,1247.2491349319462,1247.5076098719146,1247.2491349319462,1247.5076098719146,1247.5076098719146,None,1247.5076098719146,None,space,0.3188565280288458,1247.5076098719146,None,0.2589,1247.9556908559753,None,,,,,,,DEC017,001,2022_Nov_02_1439,2-25_cond_decay_EYE-try,2021.2.3,120.50999206878282,
right,0.75,1.0,1,2,0,2,0,0,0,0,0,0,4,4,7,,,,,,,,,,,,,,,1s,1249.0067982299952,1250.0074444359634,1249.9991795269307,None,1250.9984787129797,1251.7902685109293,1250.9984787129797,1251.7902685109293,1251.7902685109293,None,1251.7902685109293,None,space,0.2925183679908514,1251.7902685109293,None,0.7916,1252.2076290439581,None,,,,,,,DEC017,001,2022_Nov_02_1439,2-25_cond_decay_EYE-try,2021.2.3,120.50999206878282,
left,0.75,1.0,0,2,0,2,0,0,0,0,0,0,5,5,2,,,,,,,,,,,,,,,1s,1253.2727538199397,1254.273811202962,1254.2577234469354,None,1255.2571340989089,1256.1571665969677,1255.2571340989089,1256.1571665969677,1256.1571665969677,None,1256.1571665969677,None,space,0.3024347530445084,1256.1571665969677,None,0.8962,1256.5897207289236,None,,,,,,,DEC017,001,2022_Nov_02_1439,2-25_cond_decay_EYE-try,2021.2.3,120.50999206878282,
left,0.75,1.0,0,2,0,2,0,0,0,0,0,0,6,6,3,,,,,,,,,,,,,,,1s,1257.6481319390005,1258.6487023489317,1258.6407268369803,None,1259.6410351929953,1260.3992864489555,1259.6410351929953,1260.3992864489555,1260.3909544500057,None,1260.3909544500057,None,space,0.2916975610423833,1260.3909544500057,None,0.7554,1260.8075897119706,None,,,,,,,DEC017,001,2022_Nov_02_1439,2-25_cond_decay_EYE-try,2021.2.3,120.50999206878282,
right,1.0,0.75,0,2,0,2,0,0,0,0,0,0,7,7,4,,,,,,,,,,,,,,,1s,1261.8730909309816,1262.8741106909001,1262.8662033299915,None,1263.8574594409438,1264.0492409459548,1263.8574594409438,1264.0492409459548,1264.057024431997,None,1264.057024431997,None,space,0.578587717958726,1264.057024431997,None,0.1916,1264.7651253798977,None,,,,,,,DEC017,001,2022_Nov_02_1439,2-25_cond_decay_EYE-try,2021.2.3,120.50999206878282,
right,1.0,0.75,0,2,0,2,0,0,0,0,0,0,8,8,1,,,,,,,,,,,,,,,1s,1265.8150848329533,1266.816234422964,1266.8071109669982,None,1267.8078830440063,1268.5662904909113,1267.8078830440063,1268.5662904909113,1268.55762022594,None,1268.55762022594,None,space,0.2923590219579637,1268.55762022594,None,0.7518,1268.9741365999216,None,,,,,,,DEC017,001,2022_Nov_02_1439,2-25_cond_decay_EYE-try,2021.2.3,120.50999206878282,
left,0.75,1.0,0,2,0,2,0,0,0,0,0,0,9,9,0,,,,,,,,,,,,,,,1s,1270.0309903708985,1271.0327697549947,1271.0161452878965,None,1272.0159985529026,1272.7490332059097,1272.0159985529026,1272.7490332059097,1272.7490332059097,None,1272.7490332059097,None,space,0.28670909407082945,1272.7490332059097,None,0.7292,1273.1651736740023,None,,,,,,,DEC017,001,2022_Nov_02_1439,2-25_cond_decay_EYE-try,2021.2.3,120.50999206878282,
right,1.0,0.75,0,2,0,2,0,0,0,0,0,1,0,10,1,,,,,,,,,,,,,,,1s,1274.223021062906,1275.2241339599714,1275.2161096979398,None,1276.2156610129168,1277.02462477691,1276.2156610129168,1277.02462477691,1277.02462477691,None,1277.02462477691,None,space,0.31651572592090815,1277.02462477691,None,0.8051,1277.473259101971,None,,,,,,,DEC017,001,2022_Nov_02_1439,2-25_cond_decay_EYE-try,2021.2.3,120.50999206878282,
left,0.75,1.0,0,2,0,2,0,0,0,0,0,1,1,11,2,,,,,,,,,,,,,,,1s,1278.5229799209628,1279.5240235589445,1279.515731466934,None,1280.5162985569332,1280.6989086869871,1280.5162985569332,1280.6989086869871,1280.6910064959666,None,1280.6910064959666,None,space,0.477233971003443,1280.6910064959666,None,0.1817,1281.297958582989,None,,,,,,,DEC017,001,2022_Nov_02_1439,2-25_cond_decay_EYE-try,2021.2.3,120.50999206878282,
right,1.0,0.75,0,2,0,2,0,0,0,0,0,1,2,12,6,,,,,,,,,,,,,,,1s,1282.3493610098958,1283.3493498609168,1283.340919202892,None,1284.340645300923,1285.199645623914,1284.340645300923,1285.199645623914,1285.199645623914,None,1285.199645623914,None,space,0.28309641301166266,1285.199645623914,None,0.8566,1285.607831378933,None,,,,,,,DEC017,001,2022_Nov_02_1439,2-25_cond_decay_EYE-try,2021.2.3,120.50999206878282,
right,1.0,0.75,0,2,0,2,0,0,0,0,0,1,3,13,8,,,,,,,,,,,,,,,1s,1286.664841983933,1287.6658188019646,1287.6578025110066,None,1288.6578604578972,1288.9242976648966,1288.6578604578972,1288.9242976648966,1288.9242976648966,None,1288.9242976648966,None,None,,1288.9242976648966,None,0.2659,1290.0484361649724,None,,,,,,,DEC017,001,2022_Nov_02_1439,2-25_cond_decay_EYE-try,2021.2.3,120.50999206878282,
left,1.0,0.75,1,2,0,2,0,0,0,0,0,1,4,14,5,,,,,,,,,,,,,,,1s,1291.1067516619805,1292.107833582908,1292.099589505,None,1293.1000762309413,1293.8657870210009,1293.1000762309413,1293.8657870210009,1293.8657870210009,None,1293.8657870210009,None,space,0.4004109790548682,1293.8657870210009,None,0.7629,1294.3978368369862,None,,,,,,,DEC017,001,2022_Nov_02_1439,2-25_cond_decay_EYE-try,2021.2.3,120.50999206878282,
left,0.75,1.0,0,2,0,2,0,0,0,0,0,1,5,15,9,,,,,,,,,,,,,,,1s,1295.448064712924,1296.449583309004,1296.4412811779184,None,1297.4415260299575,1297.874552074005,1297.4415260299575,1297.874552074005,1297.866087237955,None,1297.866087237955,None,space,0.37541993998456746,1297.866087237955,None,0.4255,1298.3650691019138,None,,,,,,,DEC017,001,2022_Nov_02_1439,2-25_cond_decay_EYE-try,2021.2.3,120.50999206878282,
left,0.75,1.0,0,2,0,2,0,0,0,0,0,1,6,16,0,,,,,,,,,,,,,,,1s,1299.4235252719373,1300.4245512029156,1300.4163388339803,None,1301.4166126420023,1302.3414350439562,1301.4166126420023,1302.3414350439562,1302.332731566974,None,1302.332731566974,None,space,0.26067265402525663,1302.332731566974,None,0.919,1302.7238372709835,None,,,,,,,DEC017,001,2022_Nov_02_1439,2-25_cond_decay_EYE-try,2021.2.3,120.50999206878282,
left,0.75,1.0,0,2,0,2,0,0,0,0,0,1,7,17,3,,,,,,,,,,,,,,,1s,1303.7734551629983,1304.7746233469807,1304.7665276669431,None,1305.7665158229647,1306.1165585779818,1305.7665158229647,1306.1165585779818,1306.1165585779818,None,1306.1165585779818,None,space,0.3185755879385397,1306.1165585779818,None,0.3478,1306.5645717389416,None,,,,,,,DEC017,001,2022_Nov_02_1439,2-25_cond_decay_EYE-try,2021.2.3,120.50999206878282,
right,0.75,1.0,1,2,0,2,0,0,0,0,0,1,8,18,7,,,,,,,,,,,,,,,1s,1307.6235436470015,1308.6250841629226,1308.6166765328962,None,1309.6166738449829,1309.8248697998933,1309.6166738449829,1309.8248697998933,1309.8162554949522,None,1309.8162554949522,None,space,0.31963716994505376,1309.8162554949522,None,0.203,1310.2651219209656,None,,,,,,,DEC017,001,2022_Nov_02_1439,2-25_cond_decay_EYE-try,2021.2.3,120.50999206878282,
right,1.0,0.75,0,2,0,2,0,0,0,0,0,1,9,19,4,,,,,,,,,,,,,,,1s,1311.3150618759682,1312.3166608009487,1312.308434549952,None,1313.3084852679167,1314.0001192529453,1313.3084852679167,1314.0001192529453,1314.0001192529453,None,1314.0001192529453,None,space,0.2832720830338076,1314.0001192529453,None,0.6899,1314.4146914349403,None,,,,,,,DEC017,001,2022_Nov_02_1439,2-25_cond_decay_EYE-try,2021.2.3,120.50999206878282,
,,,,2,0,2,0,0,0,0,0,,,,,,,,,,,,,,,,,,,,,,,,,,,,,,,,,,,,,,,,,,,,,DEC017,001,2022_Nov_02_1439,2-25_cond_decay_EYE-try,2021.2.3,120.50999206878282,
right,1.0,0.75,0,2,0,2,0,1,0,1,0,0,0,0,5,,,,,,,,,1315.3068141979165,None,1315.3068141979165,None,1315.3068141979165,None,5s,1349.6240797149949,1350.6255947418977,1350.6172470089514,None,1351.6173296530033,1355.3839807329932,1351.6173296530033,1355.3839807329932,1355.3839807329932,None,1355.3839807329932,None,space,0.3170454220380634,1355.3839807329932,None,3.7642,1355.8320118719712,None,,,,,,,DEC017,001,2022_Nov_02_1439,2-25_cond_decay_EYE-try,2021.2.3,120.50999206878282,
left,0.75,1.0,0,2,0,2,0,1,0,1,0,0,1,1,8,,,,,,,,,,,,,,,5s,1356.8908982209396,1357.8920662519522,1357.8830668180017,None,1358.8839057239238,1363.083524510963,1358.8839057239238,1363.083524510963,1363.0748016269645,None,1363.0748016269645,None,space,0.3590729850111529,1363.0748016269645,None,4.1967,1363.5587662729667,None,,,,,,,DEC017,001,2022_Nov_02_1439,2-25_cond_decay_EYE-try,2021.2.3,120.50999206878282,
right,1.0,0.75,0,2,0,2,0,1,0,1,0,0,2,2,6,,,,,,,,,,,,,,,5s,1364.623654536903,1365.6252075239317,1365.6089249959914,None,1366.6082184419502,1368.8500222429866,1366.6082184419502,1368.8500222429866,1368.8500222429866,None,1368.8500222429866,None,space,0.36939852696377784,1368.8500222429866,None,2.2422,1369.3494656418916,None,,,,,,,DEC017,001,2022_Nov_02_1439,2-25_cond_decay_EYE-try,2021.2.3,120.50999206878282,
left,0.75,1.0,0,2,0,2,0,1,0,1,0,0,3,3,4,,,,,,,,,,,,,,,5s,1370.4076334799174,1371.4089992849622,1371.399850302958,None,1372.4005877319723,1375.817293205997,1372.4005877319723,1375.817293205997,1375.817293205997,None,1375.817293205997,None,space,0.35206150508020073,1375.817293205997,None,3.414,1376.298799082986,None,,,,,,,DEC017,001,2022_Nov_02_1439,2-25_cond_decay_EYE-try,2021.2.3,120.50999206878282,
left,0.75,1.0,0,2,0,2,0,1,0,1,0,0,4,4,1,,,,,,,,,,,,,,,5s,1377.3490956909955,1378.3509282449959,1378.3420003859792,None,1379.3418627779465,1380.2173836629372,1379.3418627779465,1380.2173836629372,1380.2173836629372,None,1380.2173836629372,None,space,0.42484249197877944,1380.2173836629372,None,0.8729,1380.7673814179143,None,,,,,,,DEC017,001,2022_Nov_02_1439,2-25_cond_decay_EYE-try,2021.2.3,120.50999206878282,
right,1.0,0.75,0,2,0,2,0,1,0,1,0,0,5,5,2,,,,,,,,,,,,,,,5s,1381.8325183799025,1382.8339643148938,1382.816758738947,None,1383.8174220239744,1388.7586747049354,1383.8174220239744,1388.7586747049354,1388.7586747049354,None,1388.7586747049354,None,space,0.34199160104617476,1388.7586747049354,None,4.9403,1389.2251676659798,None,,,,,,,DEC017,001,2022_Nov_02_1439,2-25_cond_decay_EYE-try,2021.2.3,120.50999206878282,
right,0.75,1.0,1,2,0,2,0,1,0,1,0,0,6,6,7,,,,,,,,,,,,,,,5s,1390.2842060079565,1391.2835642308928,1391.2752821359318,None,1392.2758064479567,1392.7841843909118,1392.2758064479567,1392.7841843909118,1392.7841843909118,None,1392.7841843909118,None,space,0.47531470097601414,1392.7841843909118,None,0.5057,1393.3842034379486,None,,,,,,,DEC017,001,2022_Nov_02_1439,2-25_cond_decay_EYE-try,2021.2.3,120.50999206878282,
left,0.75,1.0,0,2,0,2,0,1,0,1,0,0,7,7,3,,,,,,,,,,,,,,,5s,1394.4410634199157,1395.4425754789263,1395.4342944748932,None,1396.4343407629058,1401.1424149239901,1396.4343407629058,1401.1424149239901,1401.1424149239901,None,1401.1424149239901,None,space,0.3777224919758737,1401.1424149239901,None,4.705,1401.6496015709126,None,,,,,,,DEC017,001,2022_Nov_02_1439,2-25_cond_decay_EYE-try,2021.2.3,120.50999206878282,
right,1.0,0.75,0,2,0,2,0,1,0,1,0,0,8,8,9,,,,,,,,,,,,,,,5s,1402.7075175389182,1403.7090352969244,1403.7007025919156,None,1404.7004250989994,1406.7840817219112,1404.7004250989994,1406.7840817219112,1406.7840817219112,None,1406.7840817219112,None,space,0.4343972089700401,1406.7840817219112,None,2.0797,1407.349230363965,None,,,,,,,DEC017,001,2022_Nov_02_1439,2-25_cond_decay_EYE-try,2021.2.3,120.50999206878282,
right,1.0,0.75,0,2,0,2,0,1,0,1,0,0,9,9,0,,,,,,,,,,,,,,,5s,1408.3990535169141,1409.400501173921,1409.3921295779292,None,1410.3923099789536,1414.175936135929,1410.3923099789536,1414.175936135929,1414.167448440916,None,1414.167448440916,None,space,0.5253477700753137,1414.167448440916,None,3.777,1414.8247204469517,None,,,,,,,DEC017,001,2022_Nov_02_1439,2-25_cond_decay_EYE-try,2021.2.3,120.50999206878282,
right,1.0,0.75,0,2,0,2,0,1,0,1,0,1,0,10,6,,,,,,,,,,,,,,,5s,1415.8747892499669,1416.8754368498921,1416.867494976963,None,1417.8675639609573,1421.8671148689464,1417.8675639609573,1421.8671148689464,1421.8671148689464,None,1421.8671148689464,None,space,0.443230832926929,1421.8671148689464,None,3.9955,1422.4412560659694,None,,,,,,,DEC017,001,2022_Nov_02_1439,2-25_cond_decay_EYE-try,2021.2.3,120.50999206878282,
left,0.75,1.0,0,2,0,2,0,1,0,1,0,1,1,11,1,,,,,,,,,,,,,,,5s,1423.5000342659187,1424.5010959199863,1424.4841350499773,None,1425.4840327979764,1426.7338987109251,1425.4840327979764,1426.7338987109251,1426.7338987109251,None,1426.7338987109251,None,space,0.4193737420719117,1426.7338987109251,None,1.2493,1427.2834329149919,None,,,,,,,DEC017,001,2022_Nov_02_1439,2-25_cond_decay_EYE-try,2021.2.3,120.50999206878282,
right,1.0,0.75,0,2,0,2,0,1,0,1,0,1,2,12,2,,,,,,,,,,,,,,,5s,1428.341410976951,1429.342224416905,1429.3342432259815,None,1430.3340927009704,1432.7922329539433,1430.3340927009704,1432.7922329539433,1432.7844208069146,1433.7839535688981,1432.7844208069146,1433.7839535688981,None,,1432.7844208069146,1433.7839535688981,2.4524,1433.9160577299772,None,,,,,,,DEC017,001,2022_Nov_02_1439,2-25_cond_decay_EYE-try,2021.2.3,120.50999206878282,
right,0.75,1.0,1,2,0,2,0,1,0,1,0,1,3,13,7,,,,,,,,,,,,,,,5s,1434.9666088490048,1435.9677337559406,1435.9593615249032,None,1436.959229602944,1439.5421583909774,1436.959229602944,1439.5421583909774,1439.534852457,None,1439.534852457,None,space,0.3849789840169251,1439.534852457,None,2.578,1440.0493982390035,None,,,,,,,DEC017,001,2022_Nov_02_1439,2-25_cond_decay_EYE-try,2021.2.3,120.50999206878282,
right,1.0,0.75,0,2,0,2,0,1,0,1,0,1,4,14,9,,,,,,,,,,,,,,,5s,1441.0998569309013,1442.1005921799224,1442.093140909914,None,1443.0929391569225,1443.9597620059503,1443.0929391569225,1443.9597620059503,1443.9597620059503,None,1443.9597620059503,None,space,0.385659538093023,1443.9597620059503,None,0.8667,1444.474961382919,None,,,,,,,DEC017,001,2022_Nov_02_1439,2-25_cond_decay_EYE-try,2021.2.3,120.50999206878282,
left,0.75,1.0,0,2,0,2,0,1,0,1,0,1,5,15,8,,,,,,,,,,,,,,,5s,1445.5250370180001,1446.5258665079018,1446.5175071429694,None,1447.517773555941,1450.7096753219375,1447.517773555941,1450.7096753219375,1450.700958755915,None,1450.700958755915,None,space,0.3114081450039521,1450.700958755915,None,3.1883,1451.1412308739964,None,,,,,,,DEC017,001,2022_Nov_02_1439,2-25_cond_decay_EYE-try,2021.2.3,120.50999206878282,
left,1.0,0.75,1,2,0,2,0,1,0,1,0,1,6,16,5,,,,,,,,,,,,,,,5s,1452.192413990968,1453.192813409958,1453.1843474219786,None,1454.184903396992,1458.693201291957,1454.184903396992,1458.693201291957,1458.693201291957,None,1458.693201291957,None,space,0.36700226401444525,1458.693201291957,None,4.5027,1459.1847355319187,None,,,,,,,DEC017,001,2022_Nov_02_1439,2-25_cond_decay_EYE-try,2021.2.3,120.50999206878282,
right,1.0,0.75,0,2,0,2,0,1,0,1,0,1,7,17,0,,,,,,,,,,,,,,,5s,1460.25016692793,1461.250872767996,1461.2347225619014,None,1462.2345368439564,1463.8925990049029,1462.2345368439564,1463.8925990049029,1463.8925990049029,None,1463.8925990049029,None,space,0.4109537780750543,1463.8925990049029,None,1.6556,1464.4328913548961,None,,,,,,,DEC017,001,2022_Nov_02_1439,2-25_cond_decay_EYE-try,2021.2.3,120.50999206878282,
left,0.75,1.0,0,2,0,2,0,1,0,1,0,1,8,18,4,,,,,,,,,,,,,,,5s,1465.485126556945,1466.4841863169568,1466.4841863169568,None,1467.4844504299108,1468.6842998570064,1467.4844504299108,1468.6842998570064,1468.676528652897,1469.6767578759464,1468.676528652897,1469.6767578759464,None,,1468.676528652897,1469.6767578759464,1.1955,1469.8088101919275,None,,,,,,,DEC017,001,2022_Nov_02_1439,2-25_cond_decay_EYE-try,2021.2.3,120.50999206878282,
left,0.75,1.0,0,2,0,2,0,1,0,1,0,1,9,19,3,,,,,,,,,,,,,,,5s,1470.8600415899418,1471.8597560239723,1471.8597560239723,None,1472.8597783138976,1476.0930133389775,1472.8597783138976,1476.0930133389775,1476.0851596879074,None,1476.0851596879074,None,space,0.39178690407425165,1476.0851596879074,None,3.2298,1476.6086523599224,None,,,,,,,DEC017,001,2022_Nov_02_1439,2-25_cond_decay_EYE-try,2021.2.3,120.50999206878282,
,,,,2,0,2,0,1,0,1,0,,,,,,,,,,,,,,,,,,,,,,,,,,,,,,,,,,,,,,,,,,,,,DEC017,001,2022_Nov_02_1439,2-25_cond_decay_EYE-try,2021.2.3,120.50999206878282,
left,0.75,1.0,0,2,0,2,0,2,0,2,0,0,0,0,0,,,,,,,,,1477.5000179728959,None,1477.5000179728959,None,1477.5000179728959,None,10s,1522.000860040891,1523.0021479029674,1522.9939187359996,None,1523.9931264859624,1531.9189148379955,1523.9931264859624,1531.9189148379955,1531.9189148379955,None,1531.9189148379955,None,space,0.42745888500940055,1531.9189148379955,None,7.9237,1532.475460852962,None,,,,,,,DEC017,001,2022_Nov_02_1439,2-25_cond_decay_EYE-try,2021.2.3,120.50999206878282,
right,1.0,0.75,0,2,0,2,0,2,0,2,0,0,1,1,7,,,,,,,,,,,,,,,10s,1533.5339404649567,1534.5349990118993,1534.5190257609356,None,1535.5185634678928,1541.0775681819068,1535.5185634678928,1541.0775681819068,1541.0775681819068,None,1541.0775681819068,None,space,0.34168207400944084,1541.0775681819068,None,5.5553,1541.543805190944,None,,,,,,,DEC017,001,2022_Nov_02_1439,2-25_cond_decay_EYE-try,2021.2.3,120.50999206878282,
left,0.75,1.0,0,2,0,2,0,2,0,2,0,0,2,2,6,,,,,,,,,,,,,,,10s,1542.609308865969,1543.610922037973,1543.6018533849856,None,1544.601760076941,1548.3856980289565,1544.601760076941,1548.3856980289565,1548.3856980289565,None,1548.3856980289565,None,space,0.37753244501072913,1548.3856980289565,None,3.7837,1548.8932001129724,None,,,,,,,DEC017,001,2022_Nov_02_1439,2-25_cond_decay_EYE-try,2021.2.3,120.50999206878282,
left,1.0,0.75,1,2,0,2,0,2,0,2,0,0,3,3,8,,,,,,,,,,,,,,,10s,1549.9426277969033,1550.944001306896,1550.9354346469045,None,1551.9354739569826,1554.7857201959705,1551.9354739569826,1554.7857201959705,1554.776874845964,None,1554.776874845964,None,space,0.44265592901501805,1554.776874845964,None,2.845,1555.342932414962,None,,,,,,,DEC017,001,2022_Nov_02_1439,2-25_cond_decay_EYE-try,2021.2.3,120.50999206878282,
right,1.0,0.75,0,2,0,2,0,2,0,2,0,0,4,4,2,,,,,,,,,,,,,,,10s,1556.4094740760047,1557.4108553779079,1557.4027044730028,None,1558.4021927278955,1565.2356807409087,1558.4021927278955,1565.2356807409087,1565.2356807409087,None,1565.2356807409087,None,space,0.3438045639777556,1565.2356807409087,None,6.8309,1565.7099020669702,None,,,,,,,DEC017,001,2022_Nov_02_1439,2-25_cond_decay_EYE-try,2021.2.3,120.50999206878282,
right,1.0,0.75,0,2,0,2,0,2,0,2,0,0,5,5,4,,,,,,,,,,,,,,,10s,1566.759380339994,1567.761211957899,1567.7527757219505,None,1568.7526367619867,1571.7105069439858,1568.7526367619867,1571.7105069439858,1571.7105069439858,None,1571.7105069439858,None,space,0.3448817690368742,1571.7105069439858,None,2.9562,1572.184147107997,None,,,,,,,DEC017,001,2022_Nov_02_1439,2-25_cond_decay_EYE-try,2021.2.3,120.50999206878282,
left,0.75,1.0,0,2,0,2,0,2,0,2,0,0,6,6,5,,,,,,,,,,,,,,,10s,1573.2359392419457,1574.2361879879609,1574.227807550924,None,1575.2274853090057,1580.4104980509728,1575.2274853090057,1580.4104980509728,1580.4104980509728,None,1580.4104980509728,None,space,0.4005252399947494,1580.4104980509728,None,5.1767,1580.9356944529573,None,,,,,,,DEC017,001,2022_Nov_02_1439,2-25_cond_decay_EYE-try,2021.2.3,120.50999206878282,
left,0.75,1.0,0,2,0,2,0,2,0,2,0,0,7,7,9,,,,,,,,,,,,,,,10s,1581.9948258909862,1582.9942480080063,1582.985995466006,None,1583.9863689600024,1585.2606484049466,1583.9863689600024,1585.2606484049466,1585.2528976699105,None,1585.2528976699105,None,space,0.5024103890173137,1585.2528976699105,None,1.2685,1585.8849077679915,None,,,,,,,DEC017,001,2022_Nov_02_1439,2-25_cond_decay_EYE-try,2021.2.3,120.50999206878282,
right,0.75,1.0,1,2,0,2,0,2,0,2,0,0,8,8,3,,,,,,,,,,,,,,,10s,1586.943487237906,1587.9443547650008,1587.9363795659738,None,1588.9359213788994,1589.6448996209074,1588.9359213788994,1589.6448996209074,1589.6448996209074,None,1589.6448996209074,None,space,0.4524078778922558,1589.6448996209074,None,0.7079,1590.2269623070024,None,,,,,,,DEC017,001,2022_Nov_02_1439,2-25_cond_decay_EYE-try,2021.2.3,120.50999206878282,
left,0.75,1.0,0,2,0,2,0,2,0,2,0,0,9,9,1,,,,,,,,,,,,,,,10s,1591.2766298699426,1592.2779361529974,1592.2607577739982,None,1593.2689074319787,1599.2031318549998,1593.2689074319787,1599.2031318549998,1599.1945401399862,None,1599.1945401399862,None,space,0.3770398349734023,1599.1945401399862,None,5.9304,1599.7018556148978,None,,,,,,,DEC017,001,2022_Nov_02_1439,2-25_cond_decay_EYE-try,2021.2.3,120.50999206878282,
left,0.75,1.0,0,2,0,2,0,2,0,2,0,1,0,10,5,,,,,,,,,,,,,,,10s,1600.7514875949128,1601.752295318991,1601.7441002819687,None,1602.7442783139413,1608.7112378089223,1602.7442783139413,1608.7112378089223,1608.7112378089223,None,1608.7112378089223,None,space,0.34425188903696835,1608.7112378089223,None,5.9664,1609.1849125149893,None,,,,,,,DEC017,001,2022_Nov_02_1439,2-25_cond_decay_EYE-try,2021.2.3,120.50999206878282,
right,1.0,0.75,0,2,0,2,0,2,0,2,0,1,1,11,0,,,,,,,,,,,,,,,10s,1610.2347889589146,1611.2361908269813,1611.2280652569607,None,1612.2281396889593,1612.794971428928,1612.2281396889593,1612.794971428928,1612.7863427499542,None,1612.7863427499542,None,space,0.5753995210397989,1612.7863427499542,None,0.5606,1613.4856696049683,None,,,,,,,DEC017,001,2022_Nov_02_1439,2-25_cond_decay_EYE-try,2021.2.3,120.50999206878282,
right,1.0,0.75,0,2,0,2,0,2,0,2,0,1,2,12,7,,,,,,,,,,,,,,,10s,1614.5366675459081,1615.5365948759718,1615.5282875458943,None,1616.5279701979598,1622.4451321769739,1616.5279701979598,1622.4451321769739,1622.4451321769739,None,1622.4451321769739,None,space,0.6270020960364491,1622.4451321769739,None,5.9148,1623.2017784559866,None,,,,,,,DEC017,001,2022_Nov_02_1439,2-25_cond_decay_EYE-try,2021.2.3,120.50999206878282,
right,1.0,0.75,0,2,0,2,0,2,0,2,0,1,3,13,4,,,,,,,,,,,,,,,10s,1624.253615674912,1625.2530238509644,1625.2449445289094,None,1626.244832180906,1634.3702016299358,1626.244832180906,1634.3702016299358,1634.3702016299358,None,1634.3702016299358,None,space,0.43342982104513794,1634.3702016299358,None,8.1225,1634.927344144904,None,,,,,,,DEC017,001,2022_Nov_02_1439,2-25_cond_decay_EYE-try,2021.2.3,120.50999206878282,
left,1.0,0.75,1,2,0,2,0,2,0,2,0,1,4,14,8,,,,,,,,,,,,,,,10s,1635.993068418,1636.99524685496,1636.98682650493,None,1637.9868901349837,1644.7863170929486,1637.9868901349837,1644.7863170929486,1644.7785257609794,None,1644.7785257609794,None,space,0.38547646102961153,1644.7785257609794,None,6.7933,1645.2932948709931,None,,,,,,,DEC017,001,2022_Nov_02_1439,2-25_cond_decay_EYE-try,2021.2.3,120.50999206878282,
left,0.75,1.0,0,2,0,2,0,2,0,2,0,1,5,15,1,,,,,,,,,,,,,,,10s,1646.343253256986,1647.344647484948,1647.3279315539403,1652.1204178609187,1648.336563893943,1651.1368354989681,1648.336563893943,1651.1368354989681,1651.1280089549255,None,1651.1280089549255,None,None,,1651.1280089549255,None,2.7932,1652.252111634938,None,,,,,,,DEC017,001,2022_Nov_02_1439,2-25_cond_decay_EYE-try,2021.2.3,120.50999206878282,
left,0.75,1.0,0,2,0,2,0,2,0,2,0,1,6,16,6,,,,,,,,,,,,,,,10s,1653.302929044934,1654.3036608409602,1654.294591816957,None,1655.2954828399234,1658.577984228963,1655.2954828399234,1658.577984228963,1658.577984228963,None,1658.577984228963,None,space,0.417144792038016,1658.577984228963,None,3.2784,1659.1270667699864,None,,,,,,,DEC017,001,2022_Nov_02_1439,2-25_cond_decay_EYE-try,2021.2.3,120.50999206878282,
left,0.75,1.0,0,2,0,2,0,2,0,2,0,1,7,17,9,,,,,,,,,,,,,,,10s,1660.1769410739653,1661.1785545339808,1661.1701238239184,None,1662.1702262839535,1671.7206698060036,1662.1702262839535,1671.7206698060036,1671.7119968249463,None,1671.7119968249463,None,space,0.3694061350543052,1671.7119968249463,None,9.5443,1672.210373851005,None,,,,,,,DEC017,001,2022_Nov_02_1439,2-25_cond_decay_EYE-try,2021.2.3,120.50999206878282,
right,0.75,1.0,1,2,0,2,0,2,0,2,0,1,8,18,3,,,,,,,,,,,,,,,10s,1673.2699189309496,1674.2700288549531,1674.2615582329454,None,1675.262247149949,1679.9201046279632,1675.262247149949,1679.9201046279632,1679.9201046279632,None,1679.9201046279632,None,space,0.44245494494680315,1679.9201046279632,None,4.6561,1680.4940421408974,None,,,,,,,DEC017,001,2022_Nov_02_1439,2-25_cond_decay_EYE-try,2021.2.3,120.50999206878282,
right,1.0,0.75,0,2,0,2,0,2,0,2,0,1,9,19,2,,,,,,,,,,,,,,,10s,1681.543843952939,1682.5452642269665,1682.5368924119975,None,1683.53728748695,1687.4372401919682,1683.53728748695,1687.4372401919682,1687.4286856169347,None,1687.4286856169347,None,space,0.39197007298935205,1687.4286856169347,None,3.895,1687.9458639589138,None,,,,,,,DEC017,001,2022_Nov_02_1439,2-25_cond_decay_EYE-try,2021.2.3,120.50999206878282,
,,,,2,0,2,0,2,0,2,0,,,,,,,,,,,,,,,,,,,,,,,,,,,,,,,,,,,,,,,,,,,,,DEC017,001,2022_Nov_02_1439,2-25_cond_decay_EYE-try,2021.2.3,120.50999206878282,
right,1.0,0.75,0,2,0,2,0,3,0,3,0,0,0,0,5,,,,,,,,,1688.843846714939,None,1688.843846714939,None,1688.843846714939,None,3s,1705.4695253459504,1706.4710693178931,1706.4541500449413,None,1707.4538708919426,1709.8620281500043,1707.4538708919426,1709.8620281500043,1709.8620281500043,None,1709.8620281500043,None,space,0.3253338870126754,1709.8620281500043,None,2.4037,1710.3193102269433,None,,,,,,,DEC017,001,2022_Nov_02_1439,2-25_cond_decay_EYE-try,2021.2.3,120.50999206878282,
left,0.75,1.0,0,2,0,2,0,3,0,3,0,0,1,1,4,,,,,,,,,,,,,,,3s,1711.3710390389897,1712.3706502299756,1712.3622858779272,None,1713.3620262849145,1715.3877926929854,1713.3620262849145,1715.3877926929854,1715.3877926929854,None,1715.3877926929854,None,space,0.32655540900304914,1715.3877926929854,None,2.0227,1715.8379784029676,None,,,,,,,DEC017,001,2022_Nov_02_1439,2-25_cond_decay_EYE-try,2021.2.3,120.50999206878282,
right,1.0,0.75,0,2,0,2,0,3,0,3,0,0,2,2,9,,,,,,,,,,,,,,,3s,1716.9026257359656,1717.903959393967,1717.895996106905,None,1718.8956790718948,1720.1119432969717,1718.8956790718948,1720.1119432969717,1720.1119432969717,None,1720.1119432969717,None,space,0.36142467299941927,1720.1119432969717,None,1.2158,1720.6027591879247,None,,,,,,,DEC017,001,2022_Nov_02_1439,2-25_cond_decay_EYE-try,2021.2.3,120.50999206878282,
right,1.0,0.75,0,2,0,2,0,3,0,3,0,0,3,3,0,,,,,,,,,,,,,,,3s,1721.6528330889996,1722.653750920901,1722.645643082913,None,1723.645443324931,1726.287443043897,1723.645443324931,1726.287443043897,1726.2788306889124,None,1726.2788306889124,None,space,0.4195259769912809,1726.2788306889124,None,2.6385,1726.8279812129913,None,,,,,,,DEC017,001,2022_Nov_02_1439,2-25_cond_decay_EYE-try,2021.2.3,120.50999206878282,
right,1.0,0.75,0,2,0,2,0,3,0,3,0,0,4,4,7,,,,,,,,,,,,,,,3s,1727.8774737579515,1728.879200789961,1728.8708549219882,None,1729.870456461911,1730.7954451469705,1729.870456461911,1730.7954451469705,1730.7954451469705,None,1730.7954451469705,None,space,0.46072217100299895,1730.7954451469705,None,0.9215,1731.386246047914,None,,,,,,,DEC017,001,2022_Nov_02_1439,2-25_cond_decay_EYE-try,2021.2.3,120.50999206878282,
left,0.75,1.0,0,2,0,2,0,3,0,3,0,0,5,5,2,,,,,,,,,,,,,,,3s,1732.4445093839895,1733.4462038349593,1733.4379267549375,None,1734.4376909038983,1735.0536428448977,1734.4376909038983,1735.0536428448977,1735.0536428448977,None,1735.0536428448977,None,space,0.4448971359524876,1735.0536428448977,None,0.6143,1735.6282578679966,None,,,,,,,DEC017,001,2022_Nov_02_1439,2-25_cond_decay_EYE-try,2021.2.3,120.50999206878282,
left,1.0,0.75,1,2,0,2,0,3,0,3,0,0,6,6,8,,,,,,,,,,,,,,,3s,1736.6779500239063,1737.679722809,1737.6714717239374,None,1738.6714606529567,1741.0043651669985,1738.6714606529567,1741.0043651669985,1741.0043651669985,None,1741.0043651669985,None,space,0.3502093539573252,1741.0043651669985,None,2.3306,1741.4796523168916,None,,,,,,,DEC017,001,2022_Nov_02_1439,2-25_cond_decay_EYE-try,2021.2.3,120.50999206878282,
left,0.75,1.0,0,2,0,2,0,3,0,3,0,0,7,7,3,,,,,,,,,,,,,,,3s,1742.5444968719967,1743.5463429449592,1743.5370923459996,None,1744.537218979909,1747.4793595880037,1744.537218979909,1747.4793595880037,1747.4706015168922,None,1747.4706015168922,None,space,0.41174661996774375,1747.4706015168922,None,2.9381,1748.011396140908,None,,,,,,,DEC017,001,2022_Nov_02_1439,2-25_cond_decay_EYE-try,2021.2.3,120.50999206878282,
left,0.75,1.0,0,2,0,2,0,3,0,3,0,0,8,8,1,,,,,,,,,,,,,,,3s,1749.061992881936,1750.0628540589241,1750.0545505780028,None,1751.0543610739987,1751.3293750559678,1751.0543610739987,1751.3293750559678,1751.3293750559678,None,1751.3293750559678,None,None,,1751.3293750559678,None,0.2753,1752.4531857279362,None,,,,,,,DEC017,001,2022_Nov_02_1439,2-25_cond_decay_EYE-try,2021.2.3,120.50999206878282,
right,0.75,1.0,1,2,0,2,0,3,0,3,0,0,9,9,6,,,,,,,,,,,,,,,3s,1753.5119727319106,1754.5124570409534,1754.5044473379385,None,1755.5043211729499,1757.879257540917,1755.5043211729499,1757.879257540917,1757.879257540917,None,1757.879257540917,None,space,0.39419662905856967,1757.879257540917,None,2.3756,1758.403112579952,None,,,,,,,DEC017,001,2022_Nov_02_1439,2-25_cond_decay_EYE-try,2021.2.3,120.50999206878282,
left,1.0,0.75,1,2,0,2,0,3,0,3,0,1,0,10,8,,,,,,,,,,,,,,,3s,1759.4543207429815,1760.45482660993,1760.4456969479797,None,1761.446257068892,1761.9043156709522,1761.446257068892,1761.9043156709522,1761.8966291409452,None,1761.8966291409452,None,space,0.38580300903413445,1761.8966291409452,None,0.4515,1762.4113794720033,None,,,,,,,DEC017,001,2022_Nov_02_1439,2-25_cond_decay_EYE-try,2021.2.3,120.50999206878282,
right,1.0,0.75,0,2,0,2,0,3,0,3,0,1,1,11,5,,,,,,,,,,,,,,,3s,1763.4622696429724,1764.4631510738982,1764.454633659916,None,1765.4542439659126,1768.246201017988,1765.4542439659126,1768.246201017988,1768.246201017988,None,1768.246201017988,None,space,0.3419510000385344,1768.246201017988,None,2.7919,1768.7120983009227,None,,,,,,,DEC017,001,2022_Nov_02_1439,2-25_cond_decay_EYE-try,2021.2.3,120.50999206878282,
right,1.0,0.75,0,2,0,2,0,3,0,3,0,1,2,12,0,,,,,,,,,,,,,,,3s,1769.7704536389792,1770.771305829985,1770.7632459979504,None,1771.7627876929473,1772.6799013519194,1771.7627876929473,1772.6799013519194,1772.6799013519194,None,1772.6799013519194,None,space,0.36017392307985574,1772.6799013519194,None,0.9143,1773.1704378139693,None,,,,,,,DEC017,001,2022_Nov_02_1439,2-25_cond_decay_EYE-try,2021.2.3,120.50999206878282,
left,0.75,1.0,0,2,0,2,0,3,0,3,0,1,3,13,4,,,,,,,,,,,,,,,3s,1774.2201561139664,1775.2214446889702,1775.2131528939353,None,1776.2133507349063,1777.105054346961,1776.2133507349063,1777.105054346961,1777.096361071919,None,1777.096361071919,None,space,0.38598161400295794,1777.096361071919,None,0.8853,1777.6116594689665,None,,,,,,,DEC017,001,2022_Nov_02_1439,2-25_cond_decay_EYE-try,2021.2.3,120.50999206878282,
right,0.75,1.0,1,2,0,2,0,3,0,3,0,1,4,14,6,,,,,,,,,,,,,,,3s,1778.6698813409312,1779.6712896229,1779.6540925429435,None,1780.6550641179783,1782.1210466519697,1780.6550641179783,1782.1210466519697,1782.1210466519697,None,1782.1210466519697,None,space,0.37745138397440314,1782.1210466519697,None,1.4604,1782.6281612059101,None,,,,,,,DEC017,001,2022_Nov_02_1439,2-25_cond_decay_EYE-try,2021.2.3,120.50999206878282,
left,0.75,1.0,0,2,0,2,0,3,0,3,0,1,5,15,2,,,,,,,,,,,,,,,3s,1783.6801523088943,1784.6801648089895,1784.6711889489088,None,1785.6711250829976,1786.6628328919178,1785.6711250829976,1786.6628328919178,1786.6628328919178,None,1786.6628328919178,None,space,0.32595909002702683,1786.6628328919178,None,0.9915,1787.1201744319405,None,,,,,,,DEC017,001,2022_Nov_02_1439,2-25_cond_decay_EYE-try,2021.2.3,120.50999206878282,
right,1.0,0.75,0,2,0,2,0,3,0,3,0,1,6,16,7,,,,,,,,,,,,,,,3s,1788.1704901009798,1789.1718731439905,1789.1628437289037,None,1790.1636088700034,1791.8627497999696,1790.1636088700034,1791.8627497999696,1791.8627497999696,None,1791.8627497999696,None,space,0.10076248901896179,1791.8627497999696,None,1.6997,1792.0871474299347,None,,,,,,,DEC017,001,2022_Nov_02_1439,2-25_cond_decay_EYE-try,2021.2.3,120.50999206878282,
