attn_cue,left_ob,right_ob,congruent,runs.thisRepN,runs.thisTrialN,runs.thisN,runs.thisIndex,blocks.thisRepN,blocks.thisTrialN,blocks.thisN,blocks.thisIndex,trials.thisRepN,trials.thisTrialN,trials.thisN,trials.thisIndex,welcome.started,welcome.stopped,text_2.started,text_2.stopped,init_key_resp.keys,init_key_resp.rt,init_key_resp.started,init_key_resp.stopped,text_3.started,text_3.stopped,text_4.started,text_4.stopped,text_5.started,text_5.stopped,block_num,texter.started,texter.stopped,cross.started,cross.stopped,left_star.started,left_star.stopped,right_star.started,right_star.stopped,left_2.started,left_2.stopped,right_2.started,right_2.stopped,key_resp.keys,key_resp.started,key_resp.stopped,Rand Tim,text.started,text.stopped,key_resp.rt,end.started,end.stopped,text_6.started,text_6.stopped,text_7.started,text_7.stopped,participant,session,date,expName,psychopyVersion,frameRate,
,,,,,,,,,,,,,,,,529.2342743659974,None,529.2342743659974,None,space,4.52740479298518,529.2342743659974,None,,,,,,,,,,,,,,,,,,,,,,,,,,,,,,,,,DEC016,001,2022_Oct_28_1345,2-25_cond_decay_EYE-try,2021.2.3,119.41984787234422,
right,0.75,1.0,1,0,0,0,0,0,0,0,0,0,0,0,9,,,,,,,,,533.7849644850066,None,533.7849644850066,None,533.7849644850066,None,10s,538.3750406409963,539.3764651310048,539.3683385379845,None,540.3680393559916,545.6514080179913,540.3680393559916,545.6514080179913,545.6435816829908,546.6432695499971,545.6435816829908,546.6432695499971,None,545.6435816829908,546.6432695499971,5.277,546.783129738993,None,,,,,,,,DEC016,001,2022_Oct_28_1345,2-25_cond_decay_EYE-try,2021.2.3,119.41984787234422,
right,1.0,0.75,0,0,0,0,0,0,0,0,0,0,1,1,3,,,,,,,,,,,,,,,10s,547.8257536579913,548.8262331789883,548.8179769359995,None,549.8176951069909,553.1183325980091,549.8176951069909,553.1183325980091,553.1183325980091,None,553.1183325980091,None,space,553.1183325980091,None,3.3004,553.8185898220108,None,0.5665693510090932,,,,,,,DEC016,001,2022_Oct_28_1345,2-25_cond_decay_EYE-try,2021.2.3,119.41984787234422,
left,1.0,0.75,1,0,0,0,0,0,0,0,0,0,2,2,2,,,,,,,,,,,,,,,10s,554.8754428570101,555.8761464399868,555.8679571860121,None,556.8680021739856,558.7760017930123,556.8680021739856,558.7760017930123,558.7760017930123,None,558.7760017930123,None,space,558.7760017930123,None,1.9051,559.4997792619979,None,0.5949509910133202,,,,,,,DEC016,001,2022_Oct_28_1345,2-25_cond_decay_EYE-try,2021.2.3,119.41984787234422,
right,1.0,0.75,0,0,0,0,0,0,0,0,0,0,3,3,0,,,,,,,,,,,,,,,10s,560.5508594560088,561.5518561589997,561.5435370169871,None,562.543157209002,571.9271453469992,562.543157209002,571.9271453469992,571.9184431080066,None,571.9184431080066,None,space,571.9184431080066,None,9.378,572.6332134289842,None,0.5841343970096204,,,,,,,DEC016,001,2022_Oct_28_1345,2-25_cond_decay_EYE-try,2021.2.3,119.41984787234422,
left,0.75,1.0,0,0,0,0,0,0,0,0,0,0,4,4,4,,,,,,,,,,,,,,,10s,573.6926035879878,574.6935403739917,574.6849135289958,None,575.6846466959978,584.2846299149969,575.6846466959978,584.2846299149969,584.2846299149969,None,584.2846299149969,None,space,584.2846299149969,None,8.5993,584.8017292059958,None,0.3927638129971456,,,,,,,DEC016,001,2022_Oct_28_1345,2-25_cond_decay_EYE-try,2021.2.3,119.41984787234422,
left,0.75,1.0,0,0,0,0,0,0,0,0,0,0,5,5,5,,,,,,,,,,,,,,,10s,585.8583340939949,586.860490942985,586.8518727280025,None,587.8436329939868,592.5763297599915,587.8436329939868,592.5763297599915,592.5763297599915,None,592.5763297599915,None,space,592.5763297599915,None,4.7281,593.1928222650022,None,0.48475504099042155,,,,,,,DEC016,001,2022_Oct_28_1345,2-25_cond_decay_EYE-try,2021.2.3,119.41984787234422,
left,0.75,1.0,0,0,0,0,0,0,0,0,0,0,6,6,7,,,,,,,,,,,,,,,10s,594.2423108090006,595.2431533380004,595.235792233987,None,596.2354813429993,597.459758766985,596.2354813429993,597.459758766985,597.451778771996,None,597.451778771996,None,space,597.451778771996,None,1.2196,598.0354591959913,None,0.4592757229984272,,,,,,,DEC016,001,2022_Oct_28_1345,2-25_cond_decay_EYE-try,2021.2.3,119.41984787234422,
right,0.75,1.0,1,0,0,0,0,0,0,0,0,0,7,7,1,,,,,,,,,,,,,,,10s,599.092264995008,600.093662706,600.0855186719855,None,601.0850357899908,604.01033701899,601.0850357899908,604.01033701899,604.01033701899,None,604.01033701899,None,space,604.01033701899,None,2.9224,604.6024634199857,None,0.46724575001280755,,,,,,,DEC016,001,2022_Oct_28_1345,2-25_cond_decay_EYE-try,2021.2.3,119.41984787234422,
right,1.0,0.75,0,0,0,0,0,0,0,0,0,0,8,8,8,,,,,,,,,,,,,,,10s,605.6517538309854,606.6523290039913,606.6430663479841,None,607.643558560987,615.0441703120014,607.643558560987,615.0441703120014,615.0441703120014,None,615.0441703120014,None,space,615.0441703120014,None,7.4001,615.5601966590039,None,0.3913898979953956,,,,,,,DEC016,001,2022_Oct_28_1345,2-25_cond_decay_EYE-try,2021.2.3,119.41984787234422,
right,1.0,0.75,0,0,0,0,0,0,0,0,0,0,9,9,6,,,,,,,,,,,,,,,10s,616.6187648790074,617.619150302984,617.6108690289839,None,618.6103236810013,619.1437889369845,618.6103236810013,619.1437889369845,619.1437889369845,None,619.1437889369845,None,space,619.1437889369845,None,0.5337,620.0593026549905,None,0.7860086869914085,,,,,,,DEC016,001,2022_Oct_28_1345,2-25_cond_decay_EYE-try,2021.2.3,119.41984787234422,
right,1.0,0.75,0,0,0,0,0,0,0,0,0,1,0,10,3,,,,,,,,,,,,,,,10s,621.1171052819991,622.118408320006,622.1099851309846,None,623.1020794860087,633.010979565006,623.1020794860087,633.010979565006,633.010979565006,None,633.010979565006,None,space,633.010979565006,None,9.9072,633.6675334459869,None,0.5269039699924178,,,,,,,DEC016,001,2022_Oct_28_1345,2-25_cond_decay_EYE-try,2021.2.3,119.41984787234422,
right,0.75,1.0,1,0,0,0,0,0,0,0,0,1,1,11,1,,,,,,,,,,,,,,,10s,634.7180485230056,635.7193054189847,635.7109624400036,None,636.7103705719928,637.260891184007,636.7103705719928,637.260891184007,637.260891184007,None,637.260891184007,None,space,637.260891184007,None,0.5496,637.934187670995,None,0.5443513040081598,,,,,,,DEC016,001,2022_Oct_28_1345,2-25_cond_decay_EYE-try,2021.2.3,119.41984787234422,
right,1.0,0.75,0,0,0,0,0,0,0,0,0,1,2,12,6,,,,,,,,,,,,,,,10s,638.9843883420108,639.9857698300038,639.9772382839874,None,640.9769528089964,650.4029417400016,640.9769528089964,650.4029417400016,650.4029417400016,None,650.4029417400016,None,space,650.4029417400016,None,9.4241,651.1179231459973,None,0.5852069199900143,,,,,,,DEC016,001,2022_Oct_28_1345,2-25_cond_decay_EYE-try,2021.2.3,119.41984787234422,
left,0.75,1.0,0,0,0,0,0,0,0,0,0,1,3,13,5,,,,,,,,,,,,,,,10s,652.1763657809934,653.1773330360011,653.1687218089937,None,654.1689740639995,657.5944635210035,654.1689740639995,657.5944635210035,657.5944635210035,None,657.5944635210035,None,space,657.5944635210035,None,3.4231,658.335899800004,None,0.6168648439925164,,,,,,,DEC016,001,2022_Oct_28_1345,2-25_cond_decay_EYE-try,2021.2.3,119.41984787234422,
right,1.0,0.75,0,0,0,0,0,0,0,0,0,1,4,14,0,,,,,,,,,,,,,,,10s,659.4008656429942,660.4027822089847,660.3937749050092,None,661.3938885139942,663.8191730289836,661.3938885139942,663.8191730289836,663.8112169459928,None,663.8112169459928,None,space,663.8112169459928,None,2.4184,664.3524378229922,None,0.4171145769942086,,,,,,,DEC016,001,2022_Oct_28_1345,2-25_cond_decay_EYE-try,2021.2.3,119.41984787234422,
left,0.75,1.0,0,0,0,0,0,0,0,0,0,1,5,15,9,,,,,,,,,,,,,,,10s,665.4181020270044,666.4188618559856,666.4107609800121,None,667.4105899310089,674.7864367289876,667.4105899310089,674.7864367289876,674.7864367289876,None,674.7864367289876,None,None,674.7864367289876,None,7.3743,675.9099000429851,None,,,,,,,,DEC016,001,2022_Oct_28_1345,2-25_cond_decay_EYE-try,2021.2.3,119.41984787234422,
left,0.75,1.0,0,0,0,0,0,0,0,0,0,1,6,16,7,,,,,,,,,,,,,,,10s,676.9676854209974,677.969683776988,677.952562313003,None,678.9527450290043,687.3943654040049,678.9527450290043,687.3943654040049,687.3943654040049,None,687.3943654040049,None,None,687.3943654040049,None,8.438,688.5111275170057,None,,,,,,,,DEC016,001,2022_Oct_28_1345,2-25_cond_decay_EYE-try,2021.2.3,119.41984787234422,
left,0.75,1.0,0,0,0,0,0,0,0,0,0,1,7,17,4,,,,,,,,,,,,,,,10s,689.5691615169926,690.5697397080075,690.5611651029903,None,691.5616188230051,692.6943597059872,691.5616188230051,692.6943597059872,692.6943597059872,None,692.6943597059872,None,space,692.6943597059872,None,1.1322,693.3595394770091,None,0.5338542850222439,,,,,,,DEC016,001,2022_Oct_28_1345,2-25_cond_decay_EYE-try,2021.2.3,119.41984787234422,
left,1.0,0.75,1,0,0,0,0,0,0,0,0,1,8,18,2,,,,,,,,,,,,,,,10s,694.4101857139904,695.4118078920001,695.4032023269974,None,696.4025227940001,697.53636521101,696.4025227940001,697.53636521101,697.53636521101,None,697.53636521101,None,space,697.53636521101,None,1.1352,698.1096079130075,None,0.4446690850018058,,,,,,,DEC016,001,2022_Oct_28_1345,2-25_cond_decay_EYE-try,2021.2.3,119.41984787234422,
right,1.0,0.75,0,0,0,0,0,0,0,0,0,1,9,19,8,,,,,,,,,,,,,,,10s,699.160429237003,700.1617278699996,700.1532311390038,None,701.1533663779846,701.5115146689932,701.1533663779846,701.5115146689932,701.5029804279911,None,701.5029804279911,None,space,701.5029804279911,None,0.3529,702.2520175490063,None,0.6189977430040017,,,,,,,DEC016,001,2022_Oct_28_1345,2-25_cond_decay_EYE-try,2021.2.3,119.41984787234422,
,,,,0,0,0,0,0,0,0,0,,,,,,,,,,,,,,,,,,,,,,,,,,,,,,,,,,,,,,,,,,,,,DEC016,001,2022_Oct_28_1345,2-25_cond_decay_EYE-try,2021.2.3,119.41984787234422,
right,1.0,0.75,0,0,0,0,0,1,0,1,0,0,0,0,4,,,,,,,,,703.143048280006,None,703.143048280006,None,703.143048280006,None,5s,705.8200321260083,706.8193077670003,706.8109820180107,None,707.8114317969885,708.9860852929996,707.8114317969885,708.9860852929996,708.9860852929996,None,708.9860852929996,None,space,708.9860852929996,None,1.1698,709.518054227985,None,0.40311962898704223,,,,,,,DEC016,001,2022_Oct_28_1345,2-25_cond_decay_EYE-try,2021.2.3,119.41984787234422,
left,0.75,1.0,0,0,0,0,0,1,0,1,0,0,1,1,8,,,,,,,,,,,,,,,5s,710.5768279990007,711.5783358179906,711.5702459320019,None,712.5697751760017,713.1527409940027,712.5697751760017,713.1527409940027,713.1450670379854,None,713.1450670379854,None,space,713.1450670379854,None,0.5812,713.7020783209882,None,0.42707753798458725,,,,,,,DEC016,001,2022_Oct_28_1345,2-25_cond_decay_EYE-try,2021.2.3,119.41984787234422,
right,0.75,1.0,1,0,0,0,0,1,0,1,0,0,2,2,2,,,,,,,,,,,,,,,5s,714.7514252389956,715.753293257003,715.7450820000086,None,716.7446359659953,717.5032718699949,716.7446359659953,717.5032718699949,717.4944923809962,None,717.4944923809962,None,space,717.4944923809962,None,0.7557,717.9849460789992,None,0.35886991801089607,,,,,,,DEC016,001,2022_Oct_28_1345,2-25_cond_decay_EYE-try,2021.2.3,119.41984787234422,
right,1.0,0.75,0,0,0,0,0,1,0,1,0,0,3,3,9,,,,,,,,,,,,,,,5s,719.0354666989879,720.0361472080112,720.0279902129842,None,721.0280829609837,724.6199381120095,721.0280829609837,724.6199381120095,724.6120788469852,None,724.6120788469852,None,space,724.6120788469852,None,3.5867,725.1521661469887,None,0.40888378699310124,,,,,,,DEC016,001,2022_Oct_28_1345,2-25_cond_decay_EYE-try,2021.2.3,119.41984787234422,
right,1.0,0.75,0,0,0,0,0,1,0,1,0,0,4,4,1,,,,,,,,,,,,,,,5s,726.1953629470081,727.1950293880072,727.1870351810066,None,728.1861489379953,732.0285681159876,728.1861489379953,732.0285681159876,732.0285681159876,None,732.0285681159876,None,space,732.0285681159876,None,3.8357,732.5687110149884,None,0.40834913300932385,,,,,,,DEC016,001,2022_Oct_28_1345,2-25_cond_decay_EYE-try,2021.2.3,119.41984787234422,
right,1.0,0.75,0,0,0,0,0,1,0,1,0,0,5,5,7,,,,,,,,,,,,,,,5s,733.6185530840012,734.6194417430088,734.6120439259976,None,735.6119406009966,737.0861375500099,735.6119406009966,737.0861375500099,737.0786597380065,None,737.0786597380065,None,space,737.0786597380065,None,1.4728,737.8690271909873,None,0.6602894079987891,,,,,,,DEC016,001,2022_Oct_28_1345,2-25_cond_decay_EYE-try,2021.2.3,119.41984787234422,
left,1.0,0.75,1,0,0,0,0,1,0,1,0,0,6,6,6,,,,,,,,,,,,,,,5s,738.9272747969953,739.9283318590024,739.9200025770115,None,740.9198529130081,741.4117387179867,740.9198529130081,741.4117387179867,741.4117387179867,None,741.4117387179867,None,space,741.4117387179867,None,0.4871,742.0191084189864,None,0.47776113598956726,,,,,,,DEC016,001,2022_Oct_28_1345,2-25_cond_decay_EYE-try,2021.2.3,119.41984787234422,
left,0.75,1.0,0,0,0,0,0,1,0,1,0,0,7,7,3,,,,,,,,,,,,,,,5s,743.0686622310022,744.0701063199958,744.0619181059883,None,745.0617858589976,746.2618075950013,745.0617858589976,746.2618075950013,746.2618075950013,None,746.2618075950013,None,space,746.2618075950013,None,1.1992,746.719115926011,None,0.3259810880117584,,,,,,,DEC016,001,2022_Oct_28_1345,2-25_cond_decay_EYE-try,2021.2.3,119.41984787234422,
left,0.75,1.0,0,0,0,0,0,1,0,1,0,0,8,8,5,,,,,,,,,,,,,,,5s,747.7705127410009,748.7706416499859,748.7619301819941,None,749.7617676029913,751.6539953149913,749.7617676029913,751.6539953149913,751.6539953149913,None,751.6539953149913,None,space,751.6539953149913,None,1.8911,752.169119675993,None,0.3915495760156773,,,,,,,DEC016,001,2022_Oct_28_1345,2-25_cond_decay_EYE-try,2021.2.3,119.41984787234422,
right,1.0,0.75,0,0,0,0,0,1,0,1,0,0,9,9,0,,,,,,,,,,,,,,,5s,753.2274431219848,754.2287656909903,754.2197496579902,None,755.2203542609932,756.7036191679945,755.2203542609932,756.7036191679945,756.7036191679945,None,756.7036191679945,None,None,756.7036191679945,None,1.4816,757.8268895559886,None,,,,,,,,DEC016,001,2022_Oct_28_1345,2-25_cond_decay_EYE-try,2021.2.3,119.41984787234422,
right,1.0,0.75,0,0,0,0,0,1,0,1,0,1,0,10,1,,,,,,,,,,,,,,,5s,758.8851966460061,759.8865114900109,759.8791320489836,None,760.8783970630029,761.9705863269919,760.8783970630029,761.9705863269919,761.9705863269919,None,761.9705863269919,None,space,761.9705863269919,None,1.0905,762.453867364995,None,0.35302812900044955,,,,,,,DEC016,001,2022_Oct_28_1345,2-25_cond_decay_EYE-try,2021.2.3,119.41984787234422,
right,0.75,1.0,1,0,0,0,0,1,0,1,0,1,1,11,2,,,,,,,,,,,,,,,5s,763.5027793209883,764.5037348289916,764.4954242719978,None,765.4951365849993,769.786558324995,765.4951365849993,769.786558324995,769.786558324995,None,769.786558324995,None,space,769.786558324995,None,4.2879,770.5188173560018,None,0.6012470659916289,,,,,,,DEC016,001,2022_Oct_28_1345,2-25_cond_decay_EYE-try,2021.2.3,119.41984787234422,
right,1.0,0.75,0,0,0,0,0,1,0,1,0,1,2,12,9,,,,,,,,,,,,,,,5s,771.5686428539921,772.569940507994,772.5625603359949,None,773.5538303210051,777.4874520610028,773.5538303210051,777.4874520610028,777.4874520610028,None,777.4874520610028,None,space,777.4874520610028,None,3.9269,778.0937160169997,None,0.4775756809976883,,,,,,,DEC016,001,2022_Oct_28_1345,2-25_cond_decay_EYE-try,2021.2.3,119.41984787234422,
right,1.0,0.75,0,0,0,0,0,1,0,1,0,1,3,13,0,,,,,,,,,,,,,,,5s,779.1456787200004,780.1455923510075,780.1371570409974,None,781.1373110869899,783.0622680700035,781.1373110869899,783.0622680700035,783.0622680700035,None,783.0622680700035,None,space,783.0622680700035,None,1.9205,784.1279122729902,None,0.9342034599976614,,,,,,,DEC016,001,2022_Oct_28_1345,2-25_cond_decay_EYE-try,2021.2.3,119.41984787234422,
left,0.75,1.0,0,0,0,0,0,1,0,1,0,1,4,14,3,,,,,,,,,,,,,,,5s,785.1865337220079,786.1874759169878,786.1705657950079,None,787.1703118199948,789.2703325949842,787.1703118199948,789.2703325949842,789.2703325949842,None,789.2703325949842,None,space,789.2703325949842,None,2.0986,789.7696845080063,None,0.3756815539964009,,,,,,,DEC016,001,2022_Oct_28_1345,2-25_cond_decay_EYE-try,2021.2.3,119.41984787234422,
left,0.75,1.0,0,0,0,0,0,1,0,1,0,1,5,15,4,,,,,,,,,,,,,,,5s,790.8364399359853,791.836771784001,791.8204666239908,None,792.8202368489874,797.2459780570061,792.8202368489874,797.2459780570061,797.2459780570061,None,797.2459780570061,None,space,797.2459780570061,None,4.4233,797.8189375069924,None,0.44391675299266353,,,,,,,DEC016,001,2022_Oct_28_1345,2-25_cond_decay_EYE-try,2021.2.3,119.41984787234422,
left,0.75,1.0,0,0,0,0,0,1,0,1,0,1,6,16,5,,,,,,,,,,,,,,,5s,798.8698100539914,799.8701853730017,799.862079390994,None,800.8542837259884,802.7373317700112,800.8542837259884,802.7373317700112,802.7373317700112,None,802.7373317700112,None,space,802.7373317700112,None,1.8827,803.3527457180026,None,0.48389002299518324,,,,,,,DEC016,001,2022_Oct_28_1345,2-25_cond_decay_EYE-try,2021.2.3,119.41984787234422,
left,0.75,1.0,0,0,0,0,0,1,0,1,0,1,7,17,8,,,,,,,,,,,,,,,5s,804.4026683859993,805.4043240669998,805.3962962529913,None,806.3957578219997,809.5204223429901,806.3957578219997,809.5204223429901,809.5127558610111,None,809.5127558610111,None,space,809.5127558610111,None,3.1212,810.0107182799838,None,0.36899506399640813,,,,,,,DEC016,001,2022_Oct_28_1345,2-25_cond_decay_EYE-try,2021.2.3,119.41984787234422,
left,1.0,0.75,1,0,0,0,0,1,0,1,0,1,8,18,6,,,,,,,,,,,,,,,5s,811.0608743059856,812.0621184209886,812.0541070160107,None,813.0546279069968,813.4957918029977,813.0546279069968,813.4957918029977,813.4957918029977,None,813.4957918029977,None,space,813.4957918029977,None,0.4404,814.2200264479907,None,0.5938341089931782,,,,,,,DEC016,001,2022_Oct_28_1345,2-25_cond_decay_EYE-try,2021.2.3,119.41984787234422,
right,1.0,0.75,0,0,0,0,0,1,0,1,0,1,9,19,7,,,,,,,,,,,,,,,5s,815.2699112500122,816.2711986470094,816.2626838280121,None,817.2626887979859,819.0628233329917,817.2626887979859,819.0628233329917,819.0539076220011,None,819.0539076220011,None,space,819.0539076220011,None,1.7933,819.5630266229855,None,0.3846273149829358,,,,,,,DEC016,001,2022_Oct_28_1345,2-25_cond_decay_EYE-try,2021.2.3,119.41984787234422,
,,,,0,0,0,0,1,0,1,0,,,,,,,,,,,,,,,,,,,,,,,,,,,,,,,,,,,,,,,,,,,,,DEC016,001,2022_Oct_28_1345,2-25_cond_decay_EYE-try,2021.2.3,119.41984787234422,
left,0.75,1.0,0,0,0,0,0,2,0,2,0,0,0,0,3,,,,,,,,,820.4611757620005,None,820.4611757620005,None,820.4611757620005,None,3s,822.3361004540056,823.3378836420015,823.3214370580099,None,824.3211923560011,825.2794482559839,824.3211923560011,825.2794482559839,825.2794482559839,None,825.2794482559839,None,space,825.2794482559839,None,0.9539,825.74514150701,None,0.3336869719787501,,,,,,,DEC016,001,2022_Oct_28_1345,2-25_cond_decay_EYE-try,2021.2.3,119.41984787234422,
left,0.75,1.0,0,0,0,0,0,2,0,2,0,0,1,1,6,,,,,,,,,,,,,,,3s,826.7954814549885,827.7955121510022,827.7880358060065,None,828.7872773589916,829.5708473910054,828.7872773589916,829.5708473910054,829.5708473910054,None,829.5708473910054,None,space,829.5708473910054,None,0.7831,830.0370639080065,None,0.3360965170140844,,,,,,,DEC016,001,2022_Oct_28_1345,2-25_cond_decay_EYE-try,2021.2.3,119.41984787234422,
left,0.75,1.0,0,0,0,0,0,2,0,2,0,0,2,2,5,,,,,,,,,,,,,,,3s,831.086521647987,832.0879184619989,832.0708820959844,None,833.0710641659971,834.7371881690051,833.0710641659971,834.7371881690051,834.7371881690051,None,834.7371881690051,None,space,834.7371881690051,None,1.661,835.1785232120019,None,0.31149668400757946,,,,,,,DEC016,001,2022_Oct_28_1345,2-25_cond_decay_EYE-try,2021.2.3,119.41984787234422,
right,1.0,0.75,0,0,0,0,0,2,0,2,0,0,3,3,1,,,,,,,,,,,,,,,3s,836.236810900009,837.2378391860111,837.2216747720086,None,838.2206569179834,839.2543305240106,838.2206569179834,839.2543305240106,839.2543305240106,None,839.2543305240106,None,space,839.2543305240106,None,1.0286,839.9132732499857,None,0.5340718929946888,,,,,,,DEC016,001,2022_Oct_28_1345,2-25_cond_decay_EYE-try,2021.2.3,119.41984787234422,
left,1.0,0.75,1,0,0,0,0,2,0,2,0,0,4,4,9,,,,,,,,,,,,,,,3s,840.9711326420074,841.9707826169906,841.9623382980062,None,842.9627485479868,843.7127073830052,842.9627485479868,843.7127073830052,843.7048880319926,None,843.7048880319926,None,space,843.7048880319926,None,0.7463,844.2616466220061,None,0.4272106909775175,,,,,,,DEC016,001,2022_Oct_28_1345,2-25_cond_decay_EYE-try,2021.2.3,119.41984787234422,
right,0.75,1.0,1,0,0,0,0,2,0,2,0,0,5,5,8,,,,,,,,,,,,,,,3s,845.3195316979836,846.3216372210009,846.3127635639976,None,847.3130835689954,848.4291950720071,847.3130835689954,848.4291950720071,848.4212628339883,None,848.4212628339883,None,space,848.4212628339883,None,1.1124,849.0613405829936,None,0.5106441070092842,,,,,,,DEC016,001,2022_Oct_28_1345,2-25_cond_decay_EYE-try,2021.2.3,119.41984787234422,
right,1.0,0.75,0,0,0,0,0,2,0,2,0,0,6,6,0,,,,,,,,,,,,,,,3s,850.1117869270092,851.1125887180096,851.104463110998,None,852.1045142899966,854.0709449799906,852.1045142899966,854.0709449799906,854.0630354819878,None,854.0630354819878,None,space,854.0630354819878,None,1.96,854.5445271900098,None,0.35069223601021804,,,,,,,DEC016,001,2022_Oct_28_1345,2-25_cond_decay_EYE-try,2021.2.3,119.41984787234422,
right,1.0,0.75,0,0,0,0,0,2,0,2,0,0,7,7,4,,,,,,,,,,,,,,,3s,855.5954022159858,856.5966318669962,856.5881580899877,None,857.5875496850058,860.5793365729915,857.5875496850058,860.5793365729915,860.5714975729934,None,860.5714975729934,None,space,860.5714975729934,None,2.9866,861.0121879199869,None,0.310229859984247,,,,,,,DEC016,001,2022_Oct_28_1345,2-25_cond_decay_EYE-try,2021.2.3,119.41984787234422,
right,1.0,0.75,0,0,0,0,0,2,0,2,0,0,8,8,7,,,,,,,,,,,,,,,3s,862.0613391959923,863.0636333749862,863.0542906699993,None,864.054608978011,864.3961407580064,864.054608978011,864.3961407580064,864.3883378370083,None,864.3883378370083,None,space,864.3883378370083,None,0.3348,864.9617501019966,None,0.4428371590038296,,,,,,,DEC016,001,2022_Oct_28_1345,2-25_cond_decay_EYE-try,2021.2.3,119.41984787234422,
left,0.75,1.0,0,0,0,0,0,2,0,2,0,0,9,9,2,,,,,,,,,,,,,,,3s,866.0117770099896,867.0136370940018,866.9960858300037,None,867.9966019350104,870.1384770779987,867.9966019350104,870.1384770779987,870.1384770779987,None,870.1384770779987,None,space,870.1384770779987,None,2.1352,870.6534074099909,None,0.38584175598225556,,,,,,,DEC016,001,2022_Oct_28_1345,2-25_cond_decay_EYE-try,2021.2.3,119.41984787234422,
left,1.0,0.75,1,0,0,0,0,2,0,2,0,1,0,10,9,,,,,,,,,,,,,,,3s,871.7113848279987,872.7132612779969,872.7048490770103,None,873.7048083640111,874.7130934000015,873.7048083640111,874.7130934000015,874.7049621150072,None,874.7049621150072,None,space,874.7049621150072,None,1.0037,875.2616070889926,None,0.42710039898520336,,,,,,,DEC016,001,2022_Oct_28_1345,2-25_cond_decay_EYE-try,2021.2.3,119.41984787234422,
left,0.75,1.0,0,0,0,0,0,2,0,2,0,1,1,11,5,,,,,,,,,,,,,,,3s,876.3122611170111,877.3130709230027,877.3043293299852,None,878.305435657996,879.3046977749909,878.305435657996,879.3046977749909,879.2959861159907,None,879.2959861159907,None,space,879.2959861159907,None,0.996,879.8787666249846,None,0.4533943730057217,,,,,,,DEC016,001,2022_Oct_28_1345,2-25_cond_decay_EYE-try,2021.2.3,119.41984787234422,
right,1.0,0.75,0,0,0,0,0,2,0,2,0,1,2,12,7,,,,,,,,,,,,,,,3s,880.929216702003,881.930300181004,881.9220477679919,None,882.9212188060046,884.9464582270011,882.9212188060046,884.9464582270011,884.9464582270011,None,884.9464582270011,None,space,884.9464582270011,None,2.0239,885.4955182370031,None,0.41751080501126125,,,,,,,DEC016,001,2022_Oct_28_1345,2-25_cond_decay_EYE-try,2021.2.3,119.41984787234422,
right,1.0,0.75,0,0,0,0,0,2,0,2,0,1,3,13,1,,,,,,,,,,,,,,,3s,886.545639176009,887.546246627986,887.5379047229944,None,888.5297875450051,889.6631440499914,888.5297875450051,889.6631440499914,889.6631440499914,None,889.6631440499914,None,space,889.6631440499914,None,1.127,890.1699967260065,None,0.3780971740197856,,,,,,,DEC016,001,2022_Oct_28_1345,2-25_cond_decay_EYE-try,2021.2.3,119.41984787234422,
left,0.75,1.0,0,0,0,0,0,2,0,2,0,1,4,14,2,,,,,,,,,,,,,,,3s,891.220614461985,892.2212587969843,892.2132670239953,None,893.213605352008,894.3134391639906,893.213605352008,894.3134391639906,894.3055009479867,None,894.3055009479867,None,space,894.3055009479867,None,1.0962,894.8617735779844,None,0.426586285000667,,,,,,,DEC016,001,2022_Oct_28_1345,2-25_cond_decay_EYE-try,2021.2.3,119.41984787234422,
right,0.75,1.0,1,0,0,0,0,2,0,2,0,1,5,15,8,,,,,,,,,,,,,,,3s,895.9209670739947,896.9216338139959,896.9131048209965,None,897.9138617159915,898.3554543239879,897.9138617159915,898.3554543239879,898.3554543239879,None,898.3554543239879,None,space,898.3554543239879,None,0.4381,898.9374233990093,None,0.4582351660064887,,,,,,,DEC016,001,2022_Oct_28_1345,2-25_cond_decay_EYE-try,2021.2.3,119.41984787234422,
left,0.75,1.0,0,0,0,0,0,2,0,2,0,1,6,16,3,,,,,,,,,,,,,,,3s,900.0043520049949,901.0048093670048,900.9973356749979,None,901.9879509939929,904.0717269289889,901.9879509939929,904.0717269289889,904.0799397010123,None,904.0799397010123,None,space,904.0799397010123,None,2.0842,904.746568069997,None,0.5424228720075916,,,,,,,DEC016,001,2022_Oct_28_1345,2-25_cond_decay_EYE-try,2021.2.3,119.41984787234422,
right,1.0,0.75,0,0,0,0,0,2,0,2,0,1,7,17,4,,,,,,,,,,,,,,,3s,905.8039636769972,906.8050543240097,906.7968004099966,None,907.7966260579997,909.938222806988,907.7966260579997,909.938222806988,909.9296817219874,None,909.9296817219874,None,space,909.9296817219874,None,2.139,910.4623301090032,None,0.4027831930143293,,,,,,,DEC016,001,2022_Oct_28_1345,2-25_cond_decay_EYE-try,2021.2.3,119.41984787234422,
right,1.0,0.75,0,0,0,0,0,2,0,2,0,1,8,18,0,,,,,,,,,,,,,,,3s,911.5122080080037,912.5137674429861,912.5051913330099,None,913.5055886179907,915.61379183401,913.5055886179907,915.61379183401,915.61379183401,None,915.61379183401,None,space,915.61379183401,None,2.1083,916.113661231997,None,0.3752900390245486,,,,,,,DEC016,001,2022_Oct_28_1345,2-25_cond_decay_EYE-try,2021.2.3,119.41984787234422,
left,0.75,1.0,0,0,0,0,0,2,0,2,0,1,9,19,6,,,,,,,,,,,,,,,3s,917.1788276880106,918.1798893460073,918.1716886519862,None,919.1719278020028,919.6392102020036,919.1719278020028,919.6392102020036,919.6304561109864,None,919.6304561109864,None,space,919.6304561109864,None,0.4647,920.2628127099888,None,0.5026475320046302,,,,,,,DEC016,001,2022_Oct_28_1345,2-25_cond_decay_EYE-try,2021.2.3,119.41984787234422,
,,,,0,0,0,0,2,0,2,0,,,,,,,,,,,,,,,,,,,,,,,,,,,,,,,,,,,,,,,,,,,,,DEC016,001,2022_Oct_28_1345,2-25_cond_decay_EYE-try,2021.2.3,119.41984787234422,
right,1.0,0.75,0,0,0,0,0,3,0,3,0,0,0,0,4,,,,,,,,,921.1539133490005,None,921.1539133490005,None,921.1539133490005,None,1s,924.195878530998,925.1973439310095,925.1885234859947,None,926.1887407820032,926.521991251997,926.1887407820032,926.521991251997,926.521991251997,None,926.521991251997,None,space,926.521991251997,None,0.3316,927.0291464850015,None,0.37817870199796744,,,,,,,DEC016,001,2022_Oct_28_1345,2-25_cond_decay_EYE-try,2021.2.3,119.41984787234422,
right,0.75,1.0,1,0,0,0,0,3,0,3,0,0,1,1,8,,,,,,,,,,,,,,,1s,928.0792722899932,929.0807196690002,929.0635425270011,None,930.0637609139958,930.9557716769923,930.0637609139958,930.9557716769923,930.9557716769923,None,930.9557716769923,None,space,930.9557716769923,None,0.8873,931.3545961380005,None,0.2692313900042791,,,,,,,DEC016,001,2022_Oct_28_1345,2-25_cond_decay_EYE-try,2021.2.3,119.41984787234422,
right,1.0,0.75,0,0,0,0,0,3,0,3,0,0,2,2,9,,,,,,,,,,,,,,,1s,932.4124633919855,933.4137624239956,933.4052806879918,None,934.4057820849994,935.046861876006,934.4057820849994,935.046861876006,935.0389515199931,None,935.0389515199931,None,space,935.0389515199931,None,0.6354,935.4543259789934,None,0.286219831003109,,,,,,,DEC016,001,2022_Oct_28_1345,2-25_cond_decay_EYE-try,2021.2.3,119.41984787234422,
right,1.0,0.75,0,0,0,0,0,3,0,3,0,0,3,3,3,,,,,,,,,,,,,,,1s,936.5046735290089,937.5051191120001,937.4976234720089,None,938.497161567997,939.2726076219988,938.497161567997,939.2726076219988,939.2638555390004,None,939.2638555390004,None,space,939.2638555390004,None,0.7688,939.796260706993,None,0.40207097900565714,,,,,,,DEC016,001,2022_Oct_28_1345,2-25_cond_decay_EYE-try,2021.2.3,119.41984787234422,
left,0.75,1.0,0,0,0,0,0,3,0,3,0,0,4,4,0,,,,,,,,,,,,,,,1s,940.854276959988,941.8553842619876,941.8468529439997,None,942.8473431339953,943.689401562995,942.8473431339953,943.689401562995,943.6806902929966,None,943.6806902929966,None,space,943.6806902929966,None,0.8382,944.1459215419891,None,0.3360271989949979,,,,,,,DEC016,001,2022_Oct_28_1345,2-25_cond_decay_EYE-try,2021.2.3,119.41984787234422,
left,0.75,1.0,0,0,0,0,0,3,0,3,0,0,5,5,6,,,,,,,,,,,,,,,1s,945.196518590994,946.1975431829924,946.189049314009,None,947.1888288980117,947.6553336649959,947.1888288980117,947.6553336649959,947.6553336649959,None,947.6553336649959,None,space,947.6553336649959,None,0.4665,948.054444976995,None,0.2696553989953827,,,,,,,DEC016,001,2022_Oct_28_1345,2-25_cond_decay_EYE-try,2021.2.3,119.41984787234422,
left,1.0,0.75,1,0,0,0,0,3,0,3,0,0,6,6,7,,,,,,,,,,,,,,,1s,949.1061607050069,950.1057434509858,950.0976270429965,None,951.0973528299946,952.0884876349883,951.0973528299946,952.0884876349883,952.0884876349883,None,952.0884876349883,None,space,952.0884876349883,None,0.9908,952.4797898310062,None,0.26117883701226674,,,,,,,DEC016,001,2022_Oct_28_1345,2-25_cond_decay_EYE-try,2021.2.3,119.41984787234422,
left,0.75,1.0,0,0,0,0,0,3,0,3,0,0,7,7,2,,,,,,,,,,,,,,,1s,953.5288834109961,954.530176892993,954.5222338770109,None,955.5222846260003,956.4141693749989,955.5222846260003,956.4141693749989,956.4053840000124,None,956.4053840000124,None,space,956.4053840000124,None,0.8876,956.8543989619939,None,0.3200298279989511,,,,,,,DEC016,001,2022_Oct_28_1345,2-25_cond_decay_EYE-try,2021.2.3,119.41984787234422,
right,1.0,0.75,0,0,0,0,0,3,0,3,0,0,8,8,5,,,,,,,,,,,,,,,1s,957.91251797101,958.9139644629904,958.9053337299847,None,959.8976468800101,960.4391797469871,959.8976468800101,960.4391797469871,960.4391797469871,None,960.4391797469871,None,space,960.4391797469871,None,0.5345,960.8715884670091,None,0.30226798899821006,,,,,,,DEC016,001,2022_Oct_28_1345,2-25_cond_decay_EYE-try,2021.2.3,119.41984787234422,
left,0.75,1.0,0,0,0,0,0,3,0,3,0,0,9,9,1,,,,,,,,,,,,,,,1s,961.9298910670041,962.9304358559893,962.9222840669972,None,963.9222777920077,964.4229167870071,963.9222777920077,964.4229167870071,964.4141840729862,None,964.4141840729862,None,space,964.4141840729862,None,0.4938,964.812738261011,None,0.2688642209977843,,,,,,,DEC016,001,2022_Oct_28_1345,2-25_cond_decay_EYE-try,2021.2.3,119.41984787234422,
left,0.75,1.0,0,0,0,0,0,3,0,3,0,1,0,10,2,,,,,,,,,,,,,,,1s,965.8631277779932,966.8645227900124,966.8554308569874,None,967.8563353799982,968.6479118760035,967.8563353799982,968.6479118760035,968.6392112660105,None,968.6392112660105,None,space,968.6392112660105,None,0.7873,969.0792311439873,None,0.3092000249889679,,,,,,,DEC016,001,2022_Oct_28_1345,2-25_cond_decay_EYE-try,2021.2.3,119.41984787234422,
right,1.0,0.75,0,0,0,0,0,3,0,3,0,1,1,11,4,,,,,,,,,,,,,,,1s,970.1383037799969,971.1393357900088,971.1309765850019,None,972.1307237629953,972.3812718589907,972.1307237629953,972.3812718589907,972.3812718589907,None,972.3812718589907,None,space,972.3812718589907,None,0.2445,972.9718481169839,None,0.4605611609877087,,,,,,,DEC016,001,2022_Oct_28_1345,2-25_cond_decay_EYE-try,2021.2.3,119.41984787234422,
right,0.75,1.0,1,0,0,0,0,3,0,3,0,1,2,12,8,,,,,,,,,,,,,,,1s,974.0290873250051,975.0310898089956,975.0227034009877,None,976.0143946720054,976.8562569950009,976.0143946720054,976.8562569950009,976.8562569950009,None,976.8562569950009,None,space,976.8562569950009,None,0.8393,977.3057593810081,None,0.3251892479893286,,,,,,,DEC016,001,2022_Oct_28_1345,2-25_cond_decay_EYE-try,2021.2.3,119.41984787234422,
right,1.0,0.75,0,0,0,0,0,3,0,3,0,1,3,13,5,,,,,,,,,,,,,,,1s,978.3715755550074,979.3728223170037,979.3643427829957,None,980.364261759998,981.0892755340028,980.364261759998,981.0892755340028,981.0892755340028,None,981.0892755340028,None,space,981.0892755340028,None,0.7236,981.4727476149856,None,0.2590759870072361,,,,,,,DEC016,001,2022_Oct_28_1345,2-25_cond_decay_EYE-try,2021.2.3,119.41984787234422,
left,0.75,1.0,0,0,0,0,0,3,0,3,0,1,4,14,6,,,,,,,,,,,,,,,1s,982.5386723770062,983.5392738310038,983.5309824990109,None,984.5310528519913,985.3229117750016,984.5310528519913,985.3229117750016,985.3229117750016,None,985.3229117750016,None,space,985.3229117750016,None,0.7917,985.8042779149837,None,0.3522824220126495,,,,,,,DEC016,001,2022_Oct_28_1345,2-25_cond_decay_EYE-try,2021.2.3,119.41984787234422,
left,1.0,0.75,1,0,0,0,0,3,0,3,0,1,5,15,7,,,,,,,,,,,,,,,1s,986.8631073639845,987.8639755540062,987.8556900589901,None,988.8475824370107,989.1059948320035,988.8475824370107,989.1059948320035,989.1059948320035,None,989.1059948320035,None,space,989.1059948320035,None,0.2526,989.6049811620032,None,0.368861074995948,,,,,,,DEC016,001,2022_Oct_28_1345,2-25_cond_decay_EYE-try,2021.2.3,119.41984787234422,
left,0.75,1.0,0,0,0,0,0,3,0,3,0,1,6,16,0,,,,,,,,,,,,,,,1s,990.6550989949901,991.656128328992,991.6479597669968,None,992.6475812860008,993.1893602019991,992.6475812860008,993.1893602019991,993.1817228239961,None,993.1817228239961,None,space,993.1817228239961,None,0.5398,993.6048259210074,None,0.2932079840102233,,,,,,,DEC016,001,2022_Oct_28_1345,2-25_cond_decay_EYE-try,2021.2.3,119.41984787234422,
right,1.0,0.75,0,0,0,0,0,3,0,3,0,1,7,17,3,,,,,,,,,,,,,,,1s,994.663710791996,995.6650170320063,995.6481525599957,None,996.6479607080109,996.8889784940111,996.6479607080109,996.8889784940111,996.8889784940111,None,996.8889784940111,None,space,996.8889784940111,None,0.2386,997.4137908130069,None,0.39512440501130186,,,,,,,DEC016,001,2022_Oct_28_1345,2-25_cond_decay_EYE-try,2021.2.3,119.41984787234422,
right,1.0,0.75,0,0,0,0,0,3,0,3,0,1,8,18,9,,,,,,,,,,,,,,,1s,998.4631754400034,999.4649528779846,999.4557072349999,None,1000.4561109789938,1001.1147148319869,1000.4561109789938,1001.1147148319869,1001.1057197409973,None,1001.1057197409973,None,space,1001.1057197409973,None,0.6555,1001.6732696190011,None,0.4426551189972088,,,,,,,DEC016,001,2022_Oct_28_1345,2-25_cond_decay_EYE-try,2021.2.3,119.41984787234422,
left,0.75,1.0,0,0,0,0,0,3,0,3,0,1,9,19,1,,,,,,,,,,,,,,,1s,1002.7379164650047,1003.7397901829972,1003.7226282169868,None,1004.7225702599972,1005.4726267909864,1004.7225702599972,1005.4726267909864,1005.4726267909864,None,1005.4726267909864,None,space,1005.4726267909864,None,0.7488,1005.8897098900052,None,0.29242531600175425,,,,,,,DEC016,001,2022_Oct_28_1345,2-25_cond_decay_EYE-try,2021.2.3,119.41984787234422,
,,,,0,0,0,0,3,0,3,0,,,,,,,,,,,,,,,,,,,,,,,,,,,,,,,,,,,,,,,,,,,,,DEC016,001,2022_Oct_28_1345,2-25_cond_decay_EYE-try,2021.2.3,119.41984787234422,
,,,,0,0,0,0,,,,,,,,,,,,,,,,,,,,,,,,,,,,,,,,,,,,,,,,,,,1006.7885661629844,None,1006.7885661629844,None,1006.7885661629844,None,DEC016,001,2022_Oct_28_1345,2-25_cond_decay_EYE-try,2021.2.3,119.41984787234422,
right,1.0,0.75,0,1,0,1,0,0,0,0,0,0,0,0,4,,,,,,,,,1011.7885166149936,None,1011.7885166149936,None,1011.7885166149936,None,10s,1017.355035740009,1018.3568725619989,1018.3395508939866,None,1019.3396867050033,1026.1735522570089,1019.3396867050033,1026.1735522570089,1026.1735522570089,None,1026.1735522570089,None,space,1026.1735522570089,None,6.8264,1026.7471288180095,None,0.442281647992786,,,,,,,DEC016,001,2022_Oct_28_1345,2-25_cond_decay_EYE-try,2021.2.3,119.41984787234422,
right,1.0,0.75,0,1,0,1,0,0,0,0,0,0,1,1,8,,,,,,,,,,,,,,,10s,1027.805291503988,1028.806672153005,1028.798184290994,None,1029.7977326789987,1036.181290315988,1029.7977326789987,1036.181290315988,1036.1736175649858,None,1036.1736175649858,None,space,1036.1736175649858,None,6.38,1036.7800298990041,None,0.47761908001848496,,,,,,,DEC016,001,2022_Oct_28_1345,2-25_cond_decay_EYE-try,2021.2.3,119.41984787234422,
right,1.0,0.75,0,1,0,1,0,0,0,0,0,0,2,2,3,,,,,,,,,,,,,,,10s,1037.830772782996,1038.8315682910034,1038.823225828004,None,1039.823521526996,1043.8898304000031,1039.823521526996,1043.8898304000031,1043.8898304000031,None,1043.8898304000031,None,space,1043.8898304000031,None,4.0617,1044.388141414005,None,0.3689414850086905,,,,,,,DEC016,001,2022_Oct_28_1345,2-25_cond_decay_EYE-try,2021.2.3,119.41984787234422,
right,1.0,0.75,0,1,0,1,0,0,0,0,0,0,3,3,7,,,,,,,,,,,,,,,10s,1045.4392464050034,1046.440521223005,1046.4312352050038,None,1047.4321703029855,1049.9736301770026,1047.4321703029855,1049.9736301770026,1049.9649417299952,None,1049.9649417299952,None,space,1049.9649417299952,None,2.5383,1050.4992207940086,None,0.40919987999950536,,,,,,,DEC016,001,2022_Oct_28_1345,2-25_cond_decay_EYE-try,2021.2.3,119.41984787234422,
left,0.75,1.0,0,1,0,1,0,0,0,0,0,0,4,4,2,,,,,,,,,,,,,,,10s,1051.5639654090046,1052.5654499359953,1052.5566674179863,None,1053.557358830003,1058.4652216380055,1053.557358830003,1058.4652216380055,1058.4652216380055,None,1058.4652216380055,None,space,1058.4652216380055,None,4.9062,1058.9554879839998,None,0.3607440429914277,,,,,,,DEC016,001,2022_Oct_28_1345,2-25_cond_decay_EYE-try,2021.2.3,119.41984787234422,
left,0.75,1.0,0,1,0,1,0,0,0,0,0,0,5,5,9,,,,,,,,,,,,,,,10s,1059.9987751359877,1060.9988386929908,1060.9904506650055,None,1061.9898655180004,1065.8570990689914,1061.9898655180004,1065.8570990689914,1065.8570990689914,None,1065.8570990689914,None,space,1065.8570990689914,None,3.8661,1066.3972550769977,None,0.4111932849918958,,,,,,,DEC016,001,2022_Oct_28_1345,2-25_cond_decay_EYE-try,2021.2.3,119.41984787234422,
left,0.75,1.0,0,1,0,1,0,0,0,0,0,0,6,6,6,,,,,,,,,,,,,,,10s,1067.448347928992,1068.4482030000072,1068.4401613399968,None,1069.439983741002,1074.373168082995,1069.439983741002,1074.373168082995,1074.3654025600117,None,1074.3654025600117,None,space,1074.3654025600117,None,4.9265,1074.8973877509998,None,0.40097687899833545,,,,,,,DEC016,001,2022_Oct_28_1345,2-25_cond_decay_EYE-try,2021.2.3,119.41984787234422,
left,1.0,0.75,1,1,0,1,0,0,0,0,0,0,7,7,1,,,,,,,,,,,,,,,10s,1075.956101246993,1076.9571407790063,1076.9398995630036,None,1077.940510299988,1084.224038876011,1077.940510299988,1084.224038876011,1084.224038876011,None,1084.224038876011,None,space,1084.224038876011,None,6.2826,1084.721963532007,None,0.36903018900193274,,,,,,,DEC016,001,2022_Oct_28_1345,2-25_cond_decay_EYE-try,2021.2.3,119.41984787234422,
right,1.0,0.75,0,1,0,1,0,0,0,0,0,0,8,8,5,,,,,,,,,,,,,,,10s,1085.7809151149995,1086.7826361350017,1086.774124877993,None,1087.7734033089946,1096.4820891460113,1087.7734033089946,1096.4820891460113,1096.4743368049967,None,1096.4743368049967,None,space,1096.4743368049967,None,8.7031,1096.9977577189857,None,0.3939767809933983,,,,,,,DEC016,001,2022_Oct_28_1345,2-25_cond_decay_EYE-try,2021.2.3,119.41984787234422,
right,0.75,1.0,1,1,0,1,0,0,0,0,0,0,9,9,0,,,,,,,,,,,,,,,10s,1098.0489589140052,1099.0486234829878,1099.0402035810112,None,1100.0400702469924,1103.1656405889953,1100.0400702469924,1103.1656405889953,1103.1656405889953,None,1103.1656405889953,None,space,1103.1656405889953,None,3.1217,1103.7141407390009,None,0.4190766460087616,,,,,,,DEC016,001,2022_Oct_28_1345,2-25_cond_decay_EYE-try,2021.2.3,119.41984787234422,
left,0.75,1.0,0,1,0,1,0,0,0,0,0,1,0,10,6,,,,,,,,,,,,,,,10s,1104.7722826729878,1105.7735607530049,1105.7652635250124,None,1106.765795740008,1108.6736746029928,1106.765795740008,1108.6736746029928,1108.6659709090018,None,1108.6659709090018,None,space,1108.6659709090018,None,1.9017,1109.181529355992,None,0.38510947799659334,,,,,,,DEC016,001,2022_Oct_28_1345,2-25_cond_decay_EYE-try,2021.2.3,119.41984787234422,
right,0.75,1.0,1,1,0,1,0,0,0,0,0,1,1,11,0,,,,,,,,,,,,,,,10s,1110.2313373860088,1111.2325673759915,1111.2235770589905,None,1112.2242153320112,1114.032405846985,1112.2242153320112,1114.032405846985,1114.032405846985,None,1114.032405846985,None,space,1114.032405846985,None,1.8047,1114.5474665809888,None,0.3853798540076241,,,,,,,DEC016,001,2022_Oct_28_1345,2-25_cond_decay_EYE-try,2021.2.3,119.41984787234422,
right,1.0,0.75,0,1,0,1,0,0,0,0,0,1,2,12,3,,,,,,,,,,,,,,,10s,1115.5978807659994,1116.5995190590038,1116.5912433289923,None,1117.590567878011,1126.9993079660053,1117.590567878011,1126.9993079660053,1126.9904378530046,1127.9904087019968,1126.9904378530046,1127.9904087019968,None,1126.9904378530046,1127.9904087019968,9.4026,1128.1229040329927,None,,,,,,,,DEC016,001,2022_Oct_28_1345,2-25_cond_decay_EYE-try,2021.2.3,119.41984787234422,
left,0.75,1.0,0,1,0,1,0,0,0,0,0,1,3,13,4,,,,,,,,,,,,,,,10s,1129.1814984199882,1130.1823579919874,1130.1742187929922,None,1131.1744800730085,1136.7745037240093,1131.1744800730085,1136.7745037240093,1136.7656030379876,None,1136.7656030379876,None,space,1136.7656030379876,None,5.5981,1137.5073011929926,None,0.6117296229931526,,,,,,,DEC016,001,2022_Oct_28_1345,2-25_cond_decay_EYE-try,2021.2.3,119.41984787234422,
left,1.0,0.75,1,1,0,1,0,0,0,0,0,1,4,14,1,,,,,,,,,,,,,,,10s,1138.5652967570059,1139.5664087490004,1139.5493424129963,None,1140.5495831779845,1144.7990621879871,1140.5495831779845,1144.7990621879871,1144.7990621879871,None,1144.7990621879871,None,space,1144.7990621879871,None,4.2463,1145.3648381209932,None,0.43616239898256026,,,,,,,DEC016,001,2022_Oct_28_1345,2-25_cond_decay_EYE-try,2021.2.3,119.41984787234422,
right,1.0,0.75,0,1,0,1,0,0,0,0,0,1,5,15,8,,,,,,,,,,,,,,,10s,1146.4232042889926,1147.4249576739967,1147.4080420529936,None,1148.4078241139941,1156.640985239006,1148.4078241139941,1156.640985239006,1156.6332988239883,None,1156.6332988239883,None,space,1156.6332988239883,None,8.2265,1157.1978472580086,None,0.4360543400107417,,,,,,,DEC016,001,2022_Oct_28_1345,2-25_cond_decay_EYE-try,2021.2.3,119.41984787234422,
right,1.0,0.75,0,1,0,1,0,0,0,0,0,1,6,16,7,,,,,,,,,,,,,,,10s,1158.256315517996,1159.2580276890076,1159.241785744991,None,1160.241043334012,1165.9662928270118,1160.241043334012,1165.9662928270118,1165.9662928270118,None,1165.9662928270118,None,space,1165.9662928270118,None,5.7235,1166.531853589986,None,0.4354381590092089,,,,,,,DEC016,001,2022_Oct_28_1345,2-25_cond_decay_EYE-try,2021.2.3,119.41984787234422,
right,1.0,0.75,0,1,0,1,0,0,0,0,0,1,7,17,5,,,,,,,,,,,,,,,10s,1167.5821942350012,1168.5829506730079,1168.574983153987,None,1169.5746148699836,1171.6496294660028,1169.5746148699836,1171.6496294660028,1171.6496294660028,None,1171.6496294660028,None,space,1171.6496294660028,None,2.0733,1172.2253328259976,None,0.45052389198099263,,,,,,,DEC016,001,2022_Oct_28_1345,2-25_cond_decay_EYE-try,2021.2.3,119.41984787234422,
left,0.75,1.0,0,1,0,1,0,0,0,0,0,1,8,18,2,,,,,,,,,,,,,,,10s,1173.2812579649908,1174.2828205139958,1174.266885494988,None,1175.2747473350028,1177.0827164159855,1175.2747473350028,1177.0827164159855,1177.075221874984,None,1177.075221874984,None,None,1177.075221874984,None,1.8063,1178.198543503997,None,,,,,,,,DEC016,001,2022_Oct_28_1345,2-25_cond_decay_EYE-try,2021.2.3,119.41984787234422,
left,0.75,1.0,0,1,0,1,0,0,0,0,0,1,9,19,9,,,,,,,,,,,,,,,10s,1179.2484149780066,1180.249821128993,1180.241529669991,None,1181.2415847829834,1182.8248826299969,1181.2415847829834,1182.8248826299969,1182.8248826299969,None,1182.8248826299969,None,space,1182.8248826299969,None,1.5832,1183.3086633670027,None,0.352277572004823,,,,,,,DEC016,001,2022_Oct_28_1345,2-25_cond_decay_EYE-try,2021.2.3,119.41984787234422,
,,,,1,0,1,0,0,0,0,0,,,,,,,,,,,,,,,,,,,,,,,,,,,,,,,,,,,,,,,,,,,,,DEC016,001,2022_Oct_28_1345,2-25_cond_decay_EYE-try,2021.2.3,119.41984787234422,
left,1.0,0.75,1,1,0,1,0,1,0,1,0,0,0,0,8,,,,,,,,,1184.198596156988,None,1184.198596156988,None,1184.198596156988,None,5s,1186.9155955140013,1187.9167451880057,1187.9076985610009,None,1188.908493178984,1190.9579944929865,1188.908493178984,1190.9579944929865,1190.9503030699852,None,1190.9503030699852,None,space,1190.9503030699852,None,2.0468,1191.5733534159954,None,0.4937702039896976,,,,,,,DEC016,001,2022_Oct_28_1345,2-25_cond_decay_EYE-try,2021.2.3,119.41984787234422,
right,1.0,0.75,0,1,0,1,0,1,0,1,0,0,1,1,5,,,,,,,,,,,,,,,5s,1192.6316686439968,1193.632840887003,1193.6168323500024,None,1194.6167398040125,1197.8247526279883,1194.6167398040125,1197.8247526279883,1197.8336327720026,None,1197.8336327720026,None,space,1197.8336327720026,None,3.2078,1198.3319064959942,None,0.3693220599961933,,,,,,,DEC016,001,2022_Oct_28_1345,2-25_cond_decay_EYE-try,2021.2.3,119.41984787234422,
right,1.0,0.75,0,1,0,1,0,1,0,1,0,0,2,2,9,,,,,,,,,,,,,,,5s,1199.3837542179972,1200.3835064960003,1200.3753199820057,None,1201.3749970959907,1204.7333335239964,1201.3749970959907,1204.7333335239964,1204.7333335239964,None,1204.7333335239964,None,space,1204.7333335239964,None,3.3534,1205.1570131669869,None,0.29372134001459926,,,,,,,DEC016,001,2022_Oct_28_1345,2-25_cond_decay_EYE-try,2021.2.3,119.41984787234422,
right,0.75,1.0,1,1,0,1,0,1,0,1,0,0,3,3,6,,,,,,,,,,,,,,,5s,1206.2087342469895,1207.2085261539905,1207.2003812470066,None,1208.1996784649964,1211.8084117539984,1208.1996784649964,1211.8084117539984,1211.8084117539984,None,1211.8084117539984,None,space,1211.8084117539984,None,3.6097,1212.2660860629985,None,0.32578650300274603,,,,,,,DEC016,001,2022_Oct_28_1345,2-25_cond_decay_EYE-try,2021.2.3,119.41984787234422,
left,0.75,1.0,0,1,0,1,0,1,0,1,0,0,4,4,3,,,,,,,,,,,,,,,5s,1213.3234687999939,1214.325543732004,1214.3167772459856,None,1215.3173463550047,1218.008174838993,1215.3173463550047,1218.008174838993,1218.008174838993,None,1218.008174838993,None,space,1218.008174838993,None,2.6921,1218.4902860209986,None,0.3528564939915668,,,,,,,DEC016,001,2022_Oct_28_1345,2-25_cond_decay_EYE-try,2021.2.3,119.41984787234422,
left,0.75,1.0,0,1,0,1,0,1,0,1,0,0,5,5,2,,,,,,,,,,,,,,,5s,1219.5494360849843,1220.5500966529944,1220.5333529560012,None,1221.5331337249954,1222.1504561800102,1221.5331337249954,1222.1504561800102,1222.1584824039892,None,1222.1584824039892,None,space,1222.1584824039892,None,0.6182,1222.9079336519935,None,0.6191037200042047,,,,,,,DEC016,001,2022_Oct_28_1345,2-25_cond_decay_EYE-try,2021.2.3,119.41984787234422,
left,0.75,1.0,0,1,0,1,0,1,0,1,0,0,6,6,1,,,,,,,,,,,,,,,5s,1223.9589278080093,1224.9583004279993,1224.949930398987,None,1225.9502545209834,1227.267062858009,1225.9502545209834,1227.267062858009,1227.267062858009,None,1227.267062858009,None,space,1227.267062858009,None,1.3121,1227.81571162201,None,0.416900380019797,,,,,,,DEC016,001,2022_Oct_28_1345,2-25_cond_decay_EYE-try,2021.2.3,119.41984787234422,
right,1.0,0.75,0,1,0,1,0,1,0,1,0,0,7,7,7,,,,,,,,,,,,,,,5s,1228.874602603988,1229.8749663739873,1229.8581609319954,None,1230.8582028629899,1234.3669158999983,1230.8582028629899,1234.3669158999983,1234.3669158999983,None,1234.3669158999983,None,space,1234.3669158999983,None,3.5091,1234.808654974011,None,0.317618945002323,,,,,,,DEC016,001,2022_Oct_28_1345,2-25_cond_decay_EYE-try,2021.2.3,119.41984787234422,
left,0.75,1.0,0,1,0,1,0,1,0,1,0,0,8,8,4,,,,,,,,,,,,,,,5s,1235.874265535007,1236.8751922590018,1236.8667762480036,None,1237.8670282349922,1238.683631997992,1237.8670282349922,1238.683631997992,1238.683631997992,None,1238.683631997992,None,space,1238.683631997992,None,0.8169,1239.282227668009,None,0.46895256300922483,,,,,,,DEC016,001,2022_Oct_28_1345,2-25_cond_decay_EYE-try,2021.2.3,119.41984787234422,
right,1.0,0.75,0,1,0,1,0,1,0,1,0,0,9,9,0,,,,,,,,,,,,,,,5s,1240.3412645290082,1241.3419320319954,1241.333837070997,None,1242.3340534989838,1246.9092237779987,1242.3340534989838,1246.9092237779987,1246.9003959099937,None,1246.9003959099937,None,space,1246.9003959099937,None,4.5679,1247.366098625993,None,0.3358688529988285,,,,,,,DEC016,001,2022_Oct_28_1345,2-25_cond_decay_EYE-try,2021.2.3,119.41984787234422,
left,0.75,1.0,0,1,0,1,0,1,0,1,0,1,0,10,3,,,,,,,,,,,,,,,5s,1248.4239697800076,1249.4256430199894,1249.4171388839895,None,1250.4084147549875,1251.733868951007,1250.4084147549875,1251.733868951007,1251.7420145370124,None,1251.7420145370124,None,space,1251.7420145370124,None,1.3266,1252.3490829950024,None,0.4780855030112434,,,,,,,DEC016,001,2022_Oct_28_1345,2-25_cond_decay_EYE-try,2021.2.3,119.41984787234422,
left,0.75,1.0,0,1,0,1,0,1,0,1,0,1,1,11,2,,,,,,,,,,,,,,,5s,1253.3989709340094,1254.4005179459928,1254.3918883769948,None,1255.3919305820018,1257.4753650880011,1255.3919305820018,1257.4753650880011,1257.4675709950097,None,1257.4675709950097,None,space,1257.4675709950097,None,2.0782,1258.05918517799,None,0.46676963299978524,,,,,,,DEC016,001,2022_Oct_28_1345,2-25_cond_decay_EYE-try,2021.2.3,119.41984787234422,
left,1.0,0.75,1,1,0,1,0,1,0,1,0,1,2,12,8,,,,,,,,,,,,,,,5s,1259.1239537140063,1260.125328433991,1260.1179048249905,None,1261.1090526290063,1262.4585190979997,1261.1090526290063,1262.4585190979997,1262.4585190979997,1263.459203343984,1262.4585190979997,1263.459203343984,None,1262.4585190979997,1263.459203343984,1.3454,1263.5909617480065,None,,,,,,,,DEC016,001,2022_Oct_28_1345,2-25_cond_decay_EYE-try,2021.2.3,119.41984787234422,
right,0.75,1.0,1,1,0,1,0,1,0,1,0,1,3,13,6,,,,,,,,,,,,,,,5s,1264.6497866970021,1265.6509347700048,1265.642530676996,None,1266.6419046600058,1267.383839733986,1266.6419046600058,1267.383839733986,1267.3758825009863,None,1267.3758825009863,None,space,1267.3758825009863,None,0.7394,1267.8747850469954,None,0.3688891849888023,,,,,,,DEC016,001,2022_Oct_28_1345,2-25_cond_decay_EYE-try,2021.2.3,119.41984787234422,
right,1.0,0.75,0,1,0,1,0,1,0,1,0,1,4,14,0,,,,,,,,,,,,,,,5s,1268.9250908670074,1269.9255941449956,1269.9178943109873,None,1270.9175121209992,1274.2421612280014,1270.9175121209992,1274.2421612280014,1274.2343635209836,None,1274.2343635209836,None,space,1274.2343635209836,None,3.3195,1274.6831788379932,None,0.31871799199143425,,,,,,,DEC016,001,2022_Oct_28_1345,2-25_cond_decay_EYE-try,2021.2.3,119.41984787234422,
right,1.0,0.75,0,1,0,1,0,1,0,1,0,1,5,15,5,,,,,,,,,,,,,,,5s,1275.7410256440053,1276.742664919002,1276.734214934986,None,1277.7340650869883,1281.8425475969852,1277.7340650869883,1281.8425475969852,1281.8337563000096,None,1281.8337563000096,None,space,1281.8337563000096,None,4.1044,1282.2510567389836,None,0.2925859760143794,,,,,,,DEC016,001,2022_Oct_28_1345,2-25_cond_decay_EYE-try,2021.2.3,119.41984787234422,
left,0.75,1.0,0,1,0,1,0,1,0,1,0,1,6,16,4,,,,,,,,,,,,,,,5s,1283.316853878001,1284.3175135320053,1284.3007095830108,None,1285.3006124800013,1289.8092511209834,1285.3006124800013,1289.8092511209834,1289.8092511209834,None,1289.8092511209834,None,space,1289.8092511209834,None,4.5018,1290.2663927290123,None,0.3279759709839709,,,,,,,DEC016,001,2022_Oct_28_1345,2-25_cond_decay_EYE-try,2021.2.3,119.41984787234422,
right,1.0,0.75,0,1,0,1,0,1,0,1,0,1,7,17,7,,,,,,,,,,,,,,,5s,1291.3244456039974,1292.3257565200038,1292.3173759889905,None,1293.31764208799,1294.6675463969877,1293.31764208799,1294.6675463969877,1294.6675463969877,None,1294.6675463969877,None,space,1294.6675463969877,None,1.3511,1295.2997206810105,None,0.5025349659845233,,,,,,,DEC016,001,2022_Oct_28_1345,2-25_cond_decay_EYE-try,2021.2.3,119.41984787234422,
right,1.0,0.75,0,1,0,1,0,1,0,1,0,1,8,18,9,,,,,,,,,,,,,,,5s,1296.3507548999914,1297.3504782009986,1297.3430406989937,None,1298.3429358199937,1301.6594748089847,1298.3429358199937,1301.6594748089847,1301.6594748089847,None,1301.6594748089847,None,space,1301.6594748089847,None,3.3179,1302.1665607889881,None,0.3780059370037634,,,,,,,DEC016,001,2022_Oct_28_1345,2-25_cond_decay_EYE-try,2021.2.3,119.41984787234422,
left,0.75,1.0,0,1,0,1,0,1,0,1,0,1,9,19,1,,,,,,,,,,,,,,,5s,1303.2244579969847,1304.2263602410094,1304.2173492609872,None,1305.217822333012,1308.2173732469964,1305.217822333012,1308.2173732469964,1308.2173732469964,None,1308.2173732469964,None,space,1308.2173732469964,None,3.0004,1308.6582462780061,None,0.31167998802266084,,,,,,,DEC016,001,2022_Oct_28_1345,2-25_cond_decay_EYE-try,2021.2.3,119.41984787234422,
,,,,1,0,1,0,1,0,1,0,,,,,,,,,,,,,,,,,,,,,,,,,,,,,,,,,,,,,,,,,,,,,DEC016,001,2022_Oct_28_1345,2-25_cond_decay_EYE-try,2021.2.3,119.41984787234422,
left,0.75,1.0,0,1,0,1,0,2,0,2,0,0,0,0,2,,,,,,,,,1309.549989955005,None,1309.549989955005,None,1309.549989955005,None,1s,1312.4333848969836,1313.4343325429945,1313.4259751439968,None,1314.4263615339878,1315.0677288440056,1314.4263615339878,1315.0677288440056,1315.0677288440056,None,1315.0677288440056,None,space,1315.0677288440056,None,0.6373,1315.499638495996,None,0.30235867900773883,,,,,,,DEC016,001,2022_Oct_28_1345,2-25_cond_decay_EYE-try,2021.2.3,119.41984787234422,
right,1.0,0.75,0,1,0,1,0,2,0,2,0,0,1,1,1,,,,,,,,,,,,,,,1s,1316.5498859320069,1317.5511258610059,1317.5425474260119,None,1318.5349066579947,1319.3933577410062,1318.5349066579947,1319.3933577410062,1319.3933577410062,None,1319.3933577410062,None,space,1319.3933577410062,None,0.8565,1319.7931000209937,None,0.2752923720108811,,,,,,,DEC016,001,2022_Oct_28_1345,2-25_cond_decay_EYE-try,2021.2.3,119.41984787234422,
left,0.75,1.0,0,1,0,1,0,2,0,2,0,0,2,2,6,,,,,,,,,,,,,,,1s,1320.8583565790032,1321.86008597599,1321.8434338959923,None,1322.842971864011,1323.559388455993,1322.842971864011,1323.559388455993,1323.5514765899861,None,1323.5514765899861,None,space,1323.5514765899861,None,0.7094,1323.9498824570037,None,0.268909274978796,,,,,,,DEC016,001,2022_Oct_28_1345,2-25_cond_decay_EYE-try,2021.2.3,119.41984787234422,
left,0.75,1.0,0,1,0,1,0,2,0,2,0,0,3,3,4,,,,,,,,,,,,,,,1s,1325.0000421209843,1326.0012161039922,1325.9929895869864,None,1326.9930700529949,1327.5011263109918,1326.9930700529949,1327.5011263109918,1327.5011263109918,None,1327.5011263109918,None,space,1327.5011263109918,None,0.5093,1327.8922399719886,None,0.26069880300201476,,,,,,,DEC016,001,2022_Oct_28_1345,2-25_cond_decay_EYE-try,2021.2.3,119.41984787234422,
left,0.75,1.0,0,1,0,1,0,2,0,2,0,0,4,4,9,,,,,,,,,,,,,,,1s,1328.9501557199983,1329.9515913900104,1329.9431217369856,None,1330.943279906991,1331.7682140189863,1330.943279906991,1331.7682140189863,1331.7595170509885,None,1331.7595170509885,None,space,1331.7595170509885,None,0.8174,1332.1422219460073,None,0.252619948994834,,,,,,,DEC016,001,2022_Oct_28_1345,2-25_cond_decay_EYE-try,2021.2.3,119.41984787234422,
right,1.0,0.75,0,1,0,1,0,2,0,2,0,0,5,5,3,,,,,,,,,,,,,,,1s,1333.1999401710054,1334.2010644490074,1334.1928129630105,None,1335.193083029997,1335.7176700590062,1335.193083029997,1335.7176700590062,1335.7176700590062,None,1335.7176700590062,None,space,1335.7176700590062,None,0.522,1336.2260870749888,None,0.38455596900894307,,,,,,,DEC016,001,2022_Oct_28_1345,2-25_cond_decay_EYE-try,2021.2.3,119.41984787234422,
right,1.0,0.75,0,1,0,1,0,2,0,2,0,0,6,6,7,,,,,,,,,,,,,,,1s,1337.2831680490053,1338.2851727220113,1338.2759465140116,None,1339.2765114049835,1339.7768908150028,1339.2765114049835,1339.7768908150028,1339.7768908150028,None,1339.7768908150028,None,space,1339.7768908150028,None,0.4976,1340.2352107490005,None,0.33370055598788895,,,,,,,DEC016,001,2022_Oct_28_1345,2-25_cond_decay_EYE-try,2021.2.3,119.41984787234422,
right,0.75,1.0,1,1,0,1,0,2,0,2,0,0,7,7,0,,,,,,,,,,,,,,,1s,1341.291409759986,1342.2930932010058,1342.284802788985,None,1343.2851228170039,1343.7103140690015,1343.2851228170039,1343.7103140690015,1343.7013471339887,None,1343.7013471339887,None,space,1343.7013471339887,None,0.4231,1344.08385953799,None,0.2524471550132148,,,,,,,DEC016,001,2022_Oct_28_1345,2-25_cond_decay_EYE-try,2021.2.3,119.41984787234422,
right,1.0,0.75,0,1,0,1,0,2,0,2,0,0,8,8,5,,,,,,,,,,,,,,,1s,1345.1352285569883,1346.1351000889845,1346.1267627269845,None,1347.1265337189834,1347.9848135930079,1347.1265337189834,1347.9848135930079,1347.9848135930079,None,1347.9848135930079,None,space,1347.9848135930079,None,0.8574,1348.3846235100063,None,0.27529063902329654,,,,,,,DEC016,001,2022_Oct_28_1345,2-25_cond_decay_EYE-try,2021.2.3,119.41984787234422,
left,1.0,0.75,1,1,0,1,0,2,0,2,0,0,9,9,8,,,,,,,,,,,,,,,1s,1349.441643283004,1350.4429414749902,1350.4348472199927,None,1351.4348946170066,1352.38461655,1351.4348946170066,1352.38461655,1352.38461655,None,1352.38461655,None,space,1352.38461655,None,0.9467,1352.7586586929974,None,0.2448574260051828,,,,,,,DEC016,001,2022_Oct_28_1345,2-25_cond_decay_EYE-try,2021.2.3,119.41984787234422,
right,1.0,0.75,0,1,0,1,0,2,0,2,0,1,0,10,7,,,,,,,,,,,,,,,1s,1353.8093391270086,1354.8098835060082,1354.801236751984,None,1355.801835671009,1356.4853941109905,1355.801835671009,1356.4853941109905,1356.4853941109905,None,1356.4853941109905,None,space,1356.4853941109905,None,0.6802,1356.950994007988,None,0.3358561049972195,,,,,,,DEC016,001,2022_Oct_28_1345,2-25_cond_decay_EYE-try,2021.2.3,119.41984787234422,
left,0.75,1.0,0,1,0,1,0,2,0,2,0,1,1,11,2,,,,,,,,,,,,,,,1s,1358.0090216120007,1359.0104986150109,1359.0021673039882,None,1360.0013586519926,1360.3686593110033,1360.0013586519926,1360.3686593110033,1360.3603922520124,None,1360.3603922520124,None,space,1360.3603922520124,None,0.3622,1360.934033264988,None,0.44392507697921246,,,,,,,DEC016,001,2022_Oct_28_1345,2-25_cond_decay_EYE-try,2021.2.3,119.41984787234422,
left,0.75,1.0,0,1,0,1,0,2,0,2,0,1,2,12,6,,,,,,,,,,,,,,,1s,1361.98374409799,1362.9848657519906,1362.976734416996,None,1363.9765306659974,1364.7605365150084,1363.9765306659974,1364.7605365150084,1364.7516321550065,None,1364.7516321550065,None,space,1364.7516321550065,None,0.7772,1365.1587780999835,None,0.2776177409978118,,,,,,,DEC016,001,2022_Oct_28_1345,2-25_cond_decay_EYE-try,2021.2.3,119.41984787234422,
right,1.0,0.75,0,1,0,1,0,2,0,2,0,1,3,13,5,,,,,,,,,,,,,,,1s,1366.2176707980107,1367.2184486800106,1367.2102205920091,None,1368.209722139989,1368.5514865040022,1368.209722139989,1368.5514865040022,1368.5514865040022,None,1368.5514865040022,None,space,1368.5514865040022,None,0.3402,1369.1085178469948,None,0.4275915560137946,,,,,,,DEC016,001,2022_Oct_28_1345,2-25_cond_decay_EYE-try,2021.2.3,119.41984787234422,
left,1.0,0.75,1,1,0,1,0,2,0,2,0,1,4,14,8,,,,,,,,,,,,,,,1s,1370.166983542993,1371.1684607339848,1371.1599063939939,None,1372.1606770819926,1372.5186777279887,1372.1606770819926,1372.5186777279887,1372.5186777279887,None,1372.5186777279887,None,space,1372.5186777279887,None,0.3582,1372.9087391440116,None,0.2605002450000029,,,,,,,DEC016,001,2022_Oct_28_1345,2-25_cond_decay_EYE-try,2021.2.3,119.41984787234422,
right,1.0,0.75,0,1,0,1,0,2,0,2,0,1,5,15,3,,,,,,,,,,,,,,,1s,1373.9677598169947,1374.9690675429883,1374.9606248729979,None,1375.9599459719902,1376.6935647859937,1375.9599459719902,1376.6935647859937,1376.6847410970076,None,1376.6847410970076,None,space,1376.6847410970076,None,0.7294,1377.05844952201,None,0.24472236400470138,,,,,,,DEC016,001,2022_Oct_28_1345,2-25_cond_decay_EYE-try,2021.2.3,119.41984787234422,
left,0.75,1.0,0,1,0,1,0,2,0,2,0,1,6,16,4,,,,,,,,,,,,,,,1s,1378.1178695370036,1379.1186081370106,1379.101593120984,None,1380.1023212529835,1380.427143206005,1380.1023212529835,1380.427143206005,1380.427143206005,None,1380.427143206005,None,space,1380.427143206005,None,0.3221,1381.1007952599903,None,0.5438238529895898,,,,,,,DEC016,001,2022_Oct_28_1345,2-25_cond_decay_EYE-try,2021.2.3,119.41984787234422,
right,0.75,1.0,1,1,0,1,0,2,0,2,0,1,7,17,0,,,,,,,,,,,,,,,1s,1382.1595477600058,1383.160373413004,1383.1517717069946,None,1384.1525015450025,1384.3271467899904,1384.1525015450025,1384.3271467899904,1384.3271467899904,None,1384.3271467899904,None,space,1384.3271467899904,None,0.1706,1384.8503196229867,None,0.3940932539990172,,,,,,,DEC016,001,2022_Oct_28_1345,2-25_cond_decay_EYE-try,2021.2.3,119.41984787234422,
left,0.75,1.0,0,1,0,1,0,2,0,2,0,1,8,18,9,,,,,,,,,,,,,,,1s,1385.9017290560005,1386.9023353910015,1386.8933427740121,None,1387.8942181119928,1388.7602999430092,1387.8942181119928,1388.7602999430092,1388.752471298998,None,1388.752471298998,None,space,1388.752471298998,None,0.8608,1389.1857964619994,None,0.3085983859782573,,,,,,,DEC016,001,2022_Oct_28_1345,2-25_cond_decay_EYE-try,2021.2.3,119.41984787234422,
right,1.0,0.75,0,1,0,1,0,2,0,2,0,1,9,19,1,,,,,,,,,,,,,,,1s,1390.2420211389835,1391.2434295440034,1391.235248737008,None,1392.235334039986,1393.160821886995,1392.235334039986,1393.160821886995,1393.160821886995,None,1393.160821886995,None,space,1393.160821886995,None,0.9256,1393.5768016850052,None,0.2913756020134315,,,,,,,DEC016,001,2022_Oct_28_1345,2-25_cond_decay_EYE-try,2021.2.3,119.41984787234422,
,,,,1,0,1,0,2,0,2,0,,,,,,,,,,,,,,,,,,,,,,,,,,,,,,,,,,,,,,,,,,,,,DEC016,001,2022_Oct_28_1345,2-25_cond_decay_EYE-try,2021.2.3,119.41984787234422,
left,0.75,1.0,0,1,0,1,0,3,0,3,0,0,0,0,1,,,,,,,,,1394.476241647004,None,1394.476241647004,None,1394.476241647004,None,3s,1396.8678453020111,1397.8682400489924,1397.8601113260083,None,1398.86008382999,1401.1691415690002,1398.86008382999,1401.1691415690002,1401.1600698200054,None,1401.1600698200054,None,space,1401.1600698200054,None,2.3014,1401.6337851689896,None,0.34496431102161296,,,,,,,DEC016,001,2022_Oct_28_1345,2-25_cond_decay_EYE-try,2021.2.3,119.41984787234422,
left,0.75,1.0,0,1,0,1,0,3,0,3,0,0,1,1,3,,,,,,,,,,,,,,,3s,1402.6837980099954,1403.6852704460034,1403.6770869529864,None,1404.677778467012,1405.4603162999847,1404.677778467012,1405.4603162999847,1405.4603162999847,None,1405.4603162999847,None,space,1405.4603162999847,None,0.7817,1405.8839759219845,None,0.2939499049971346,,,,,,,DEC016,001,2022_Oct_28_1345,2-25_cond_decay_EYE-try,2021.2.3,119.41984787234422,
right,1.0,0.75,0,1,0,1,0,3,0,3,0,0,2,2,7,,,,,,,,,,,,,,,3s,1406.9343303260102,1407.9353098729916,1407.9269809749967,None,1408.9272595999937,1411.7190480429854,1408.9272595999937,1411.7190480429854,1411.7101202800113,None,1411.7101202800113,None,space,1411.7101202800113,None,2.7857,1412.1181781379855,None,0.2780979720118921,,,,,,,DEC016,001,2022_Oct_28_1345,2-25_cond_decay_EYE-try,2021.2.3,119.41984787234422,
right,1.0,0.75,0,1,0,1,0,3,0,3,0,0,3,3,2,,,,,,,,,,,,,,,3s,1413.167465542996,1414.1687112959917,1414.1601642319874,None,1415.1611386050063,1418.0689935289847,1415.1611386050063,1418.0689935289847,1418.0604312490032,None,1418.0604312490032,None,space,1418.0604312490032,None,2.9026,1418.6176253469894,None,0.42818402298144065,,,,,,,DEC016,001,2022_Oct_28_1345,2-25_cond_decay_EYE-try,2021.2.3,119.41984787234422,
right,1.0,0.75,0,1,0,1,0,3,0,3,0,0,4,4,8,,,,,,,,,,,,,,,3s,1419.667378107988,1420.6690407129936,1420.6607786130044,None,1421.6609350100043,1424.06956115301,1421.6609350100043,1424.06956115301,1424.060629501997,None,1424.060629501997,None,space,1424.060629501997,None,2.4042,1424.509109429986,None,0.3196457360172644,,,,,,,DEC016,001,2022_Oct_28_1345,2-25_cond_decay_EYE-try,2021.2.3,119.41984787234422,
right,1.0,0.75,0,1,0,1,0,3,0,3,0,0,5,5,4,,,,,,,,,,,,,,,3s,1425.5612084479944,1426.5607731390046,1426.5523818589863,None,1427.5523259649926,1428.3606098910095,1427.5523259649926,1428.3606098910095,1428.3606098910095,None,1428.3606098910095,None,space,1428.3606098910095,None,0.8024,1428.8509156389919,None,0.3610004410147667,,,,,,,DEC016,001,2022_Oct_28_1345,2-25_cond_decay_EYE-try,2021.2.3,119.41984787234422,
right,0.75,1.0,1,1,0,1,0,3,0,3,0,0,6,6,5,,,,,,,,,,,,,,,3s,1429.9006870900048,1430.9029302310082,1430.8855623989948,None,1431.885783603997,1432.0695291890006,1431.885783603997,1432.0695291890006,1432.0695291890006,None,1432.0695291890006,None,space,1432.0695291890006,None,0.1779,1432.5927379420027,None,0.39140585900167935,,,,,,,DEC016,001,2022_Oct_28_1345,2-25_cond_decay_EYE-try,2021.2.3,119.41984787234422,
left,1.0,0.75,1,1,0,1,0,3,0,3,0,0,7,7,0,,,,,,,,,,,,,,,3s,1433.651193600992,1434.6528516160033,1434.6445503990108,None,1435.6436814609915,1438.1111317730101,1435.6436814609915,1438.1111317730101,1438.1024050249835,None,1438.1024050249835,None,space,1438.1024050249835,None,2.4628,1438.609990055993,None,0.3753375920059625,,,,,,,DEC016,001,2022_Oct_28_1345,2-25_cond_decay_EYE-try,2021.2.3,119.41984787234422,
left,0.75,1.0,0,1,0,1,0,3,0,3,0,0,8,8,9,,,,,,,,,,,,,,,3s,1439.659288269002,1440.6608140030003,1440.6528309150017,None,1441.6528034340008,1444.0947260549874,1441.6528034340008,1444.0947260549874,1444.0947260549874,None,1444.0947260549874,None,space,1444.0947260549874,None,2.4428,1444.5925175279845,None,0.36666312799206935,,,,,,,DEC016,001,2022_Oct_28_1345,2-25_cond_decay_EYE-try,2021.2.3,119.41984787234422,
left,0.75,1.0,0,1,0,1,0,3,0,3,0,0,9,9,6,,,,,,,,,,,,,,,3s,1445.6433490839845,1446.6447705200117,1446.6363609439868,None,1447.6362742029887,1447.8022746579954,1447.6362742029887,1447.8022746579954,1447.7946372129954,None,1447.7946372129954,None,space,1447.7946372129954,None,0.1626,1448.41002376299,None,0.483840690983925,,,,,,,DEC016,001,2022_Oct_28_1345,2-25_cond_decay_EYE-try,2021.2.3,119.41984787234422,
right,1.0,0.75,0,1,0,1,0,3,0,3,0,1,0,10,7,,,,,,,,,,,,,,,3s,1449.4679445619986,1450.4693336639903,1450.4606682279846,None,1451.4606138360105,1453.911468856997,1451.4606138360105,1453.911468856997,1453.9027547859878,None,1453.9027547859878,None,space,1453.9027547859878,None,2.4456,1454.326533896994,None,0.30084468601853587,,,,,,,DEC016,001,2022_Oct_28_1345,2-25_cond_decay_EYE-try,2021.2.3,119.41984787234422,
right,0.75,1.0,1,1,0,1,0,3,0,3,0,1,1,11,5,,,,,,,,,,,,,,,3s,1455.3935173380014,1456.3949617010076,1456.3863082290045,None,1457.3860938120051,1457.8609053500113,1457.3860938120051,1457.8609053500113,1457.853192259994,None,1457.853192259994,None,space,1457.853192259994,None,0.469,1458.3607261150028,None,0.3835546129848808,,,,,,,DEC016,001,2022_Oct_28_1345,2-25_cond_decay_EYE-try,2021.2.3,119.41984787234422,
right,1.0,0.75,0,1,0,1,0,3,0,3,0,1,2,12,2,,,,,,,,,,,,,,,3s,1459.4182034530095,1460.4197024950117,1460.411075912998,None,1461.411459430994,1463.519448453997,1461.411459430994,1463.519448453997,1463.5116218480107,None,1463.5116218480107,None,space,1463.5116218480107,None,2.1032,1463.9779290590086,None,0.34176690300228074,,,,,,,DEC016,001,2022_Oct_28_1345,2-25_cond_decay_EYE-try,2021.2.3,119.41984787234422,
right,1.0,0.75,0,1,0,1,0,3,0,3,0,1,3,13,8,,,,,,,,,,,,,,,3s,1465.0354620949947,1466.0364251399878,1466.0192997760023,None,1467.0194079100038,1468.1695226279844,1467.0194079100038,1468.1695226279844,1468.1695226279844,None,1468.1695226279844,None,space,1468.1695226279844,None,1.1454,1468.6446485240012,None,0.3524134610197507,,,,,,,DEC016,001,2022_Oct_28_1345,2-25_cond_decay_EYE-try,2021.2.3,119.41984787234422,
left,1.0,0.75,1,1,0,1,0,3,0,3,0,1,4,14,0,,,,,,,,,,,,,,,3s,1469.701468004001,1470.703061971988,1470.6945051380026,None,1471.6945317710051,1472.8032100560085,1471.6945317710051,1472.8032100560085,1472.7943360799982,None,1472.7943360799982,None,space,1472.7943360799982,None,1.102,1473.2436646900023,None,0.3194716449943371,,,,,,,DEC016,001,2022_Oct_28_1345,2-25_cond_decay_EYE-try,2021.2.3,119.41984787234422,
left,0.75,1.0,0,1,0,1,0,3,0,3,0,1,5,15,1,,,,,,,,,,,,,,,3s,1474.292868059012,1475.294368739007,1475.2774335349968,None,1476.2857411100122,1479.2611548150016,1476.2857411100122,1479.2611548150016,1479.252589256008,None,1479.252589256008,None,space,1479.252589256008,None,2.9704,1479.701238456997,None,0.3195125920174178,,,,,,,DEC016,001,2022_Oct_28_1345,2-25_cond_decay_EYE-try,2021.2.3,119.41984787234422,
left,0.75,1.0,0,1,0,1,0,3,0,3,0,1,6,16,3,,,,,,,,,,,,,,,3s,1480.752906631009,1481.7526175059902,1481.744415995985,None,1482.7450934340013,1482.9284043750085,1482.7450934340013,1482.9284043750085,1482.9284043750085,None,1482.9284043750085,None,space,1482.9284043750085,None,0.1796,1483.477152898995,None,0.4186941930092871,,,,,,,DEC016,001,2022_Oct_28_1345,2-25_cond_decay_EYE-try,2021.2.3,119.41984787234422,
left,0.75,1.0,0,1,0,1,0,3,0,3,0,1,7,17,6,,,,,,,,,,,,,,,3s,1484.5266890650091,1485.5284061139973,1485.5200628679886,None,1486.5200957960042,1486.7950047719933,1486.5200957960042,1486.7950047719933,1486.7863803429937,None,1486.7863803429937,None,space,1486.7863803429937,None,0.2679,1487.285028571001,None,0.36885525699472055,,,,,,,DEC016,001,2022_Oct_28_1345,2-25_cond_decay_EYE-try,2021.2.3,119.41984787234422,
left,0.75,1.0,0,1,0,1,0,3,0,3,0,1,8,18,9,,,,,,,,,,,,,,,3s,1488.3348871659837,1489.3366163070023,1489.3285440340114,None,1490.3193173919863,1492.8779856059991,1490.3193173919863,1492.8779856059991,1492.8779856059991,None,1492.8779856059991,None,space,1492.8779856059991,None,2.5544,1493.3104173699976,None,0.30336157997953705,,,,,,,DEC016,001,2022_Oct_28_1345,2-25_cond_decay_EYE-try,2021.2.3,119.41984787234422,
right,1.0,0.75,0,1,0,1,0,3,0,3,0,1,9,19,4,,,,,,,,,,,,,,,3s,1494.3600981989875,1495.3611921489937,1495.3529332109902,None,1496.3530414789857,1497.261904271989,1496.3530414789857,1497.261904271989,1497.253045491001,None,1497.253045491001,None,space,1497.253045491001,None,0.9028,1497.6852209350036,None,0.3030341400008183,,,,,,,DEC016,001,2022_Oct_28_1345,2-25_cond_decay_EYE-try,2021.2.3,119.41984787234422,
,,,,1,0,1,0,3,0,3,0,,,,,,,,,,,,,,,,,,,,,,,,,,,,,,,,,,,,,,,,,,,,,DEC016,001,2022_Oct_28_1345,2-25_cond_decay_EYE-try,2021.2.3,119.41984787234422,
,,,,1,0,1,0,,,,,,,,,,,,,,,,,,,,,,,,,,,,,,,,,,,,,,,,,,,1498.5766652860038,None,1498.5766652860038,None,1498.5766652860038,None,DEC016,001,2022_Oct_28_1345,2-25_cond_decay_EYE-try,2021.2.3,119.41984787234422,
right,1.0,0.75,0,2,0,2,0,0,0,0,0,0,0,0,6,,,,,,,,,1503.5774516329984,None,1503.5774516329984,None,1503.5774516329984,None,3s,1508.7272357209877,1509.728071015008,1509.7197615930054,None,1510.7197482399934,1513.7111400759895,1510.7197482399934,1513.7111400759895,1513.7033753030119,None,1513.7033753030119,None,space,1513.7033753030119,None,2.9849,1514.2521787740116,None,0.4186143589904532,,,,,,,DEC016,001,2022_Oct_28_1345,2-25_cond_decay_EYE-try,2021.2.3,119.41984787234422,
left,1.0,0.75,1,2,0,2,0,0,0,0,0,0,1,1,3,,,,,,,,,,,,,,,3s,1515.3023773629975,1516.3033547470113,1516.2948840739846,None,1517.2947898290004,1518.1366935659898,1517.2947898290004,1518.1366935659898,1518.128876392002,None,1518.128876392002,None,space,1518.128876392002,None,0.839,1518.7275902210095,None,0.46843725399230607,,,,,,,DEC016,001,2022_Oct_28_1345,2-25_cond_decay_EYE-try,2021.2.3,119.41984787234422,
left,0.75,1.0,0,2,0,2,0,0,0,0,0,0,2,2,5,,,,,,,,,,,,,,,3s,1519.7705890639918,1520.7701379059872,1520.7616053879901,None,1521.7620124559908,1522.694661816,1521.7620124559908,1522.694661816,1522.694661816,None,1522.694661816,None,space,1522.694661816,None,0.9283,1523.1785785509855,None,0.3589711359818466,,,,,,,DEC016,001,2022_Oct_28_1345,2-25_cond_decay_EYE-try,2021.2.3,119.41984787234422,
left,0.75,1.0,0,2,0,2,0,0,0,0,0,0,3,3,0,,,,,,,,,,,,,,,3s,1524.2351760299935,1525.2366817459988,1525.228820194985,None,1526.2285535300034,1528.6788077189995,1526.2285535300034,1528.6788077189995,1528.6702876329946,None,1528.6702876329946,None,space,1528.6702876329946,None,2.4487,1529.1527686810005,None,0.3503384919895325,,,,,,,DEC016,001,2022_Oct_28_1345,2-25_cond_decay_EYE-try,2021.2.3,119.41984787234422,
right,1.0,0.75,0,2,0,2,0,0,0,0,0,0,4,4,1,,,,,,,,,,,,,,,3s,1530.2027859220107,1531.2030060729885,1531.1866755649971,None,1532.1867754150007,1533.3283126190072,1532.1867754150007,1533.3283126190072,1533.3283126190072,None,1533.3283126190072,None,space,1533.3283126190072,None,1.1376,1533.835714107001,None,0.3775815359840635,,,,,,,DEC016,001,2022_Oct_28_1345,2-25_cond_decay_EYE-try,2021.2.3,119.41984787234422,
right,1.0,0.75,0,2,0,2,0,0,0,0,0,0,5,5,8,,,,,,,,,,,,,,,3s,1534.879052253993,1535.8786288400006,1535.8704726310098,None,1536.869779725006,1537.3782276859856,1536.869779725006,1537.3782276859856,1537.3782276859856,None,1537.3782276859856,None,space,1537.3782276859856,None,0.5069,1537.9106408869848,None,0.40290072999778204,,,,,,,DEC016,001,2022_Oct_28_1345,2-25_cond_decay_EYE-try,2021.2.3,119.41984787234422,
right,1.0,0.75,0,2,0,2,0,0,0,0,0,0,6,6,7,,,,,,,,,,,,,,,3s,1538.9603061109956,1539.9617906769854,1539.9534535759885,None,1540.9531955909915,1542.4535505480017,1540.9531955909915,1542.4535505480017,1542.4535505480017,None,1542.4535505480017,None,space,1542.4535505480017,None,1.499,1542.920556238998,None,0.3418864519917406,,,,,,,DEC016,001,2022_Oct_28_1345,2-25_cond_decay_EYE-try,2021.2.3,119.41984787234422,
left,0.75,1.0,0,2,0,2,0,0,0,0,0,0,7,7,9,,,,,,,,,,,,,,,3s,1543.9856854490063,1544.9870270540123,1544.978456885001,None,1545.9785850860062,1546.9125248269993,1545.9785850860062,1546.9125248269993,1546.9125248269993,None,1546.9125248269993,None,space,1546.9125248269993,None,0.9283,1547.3785007080005,None,0.3413213579915464,,,,,,,DEC016,001,2022_Oct_28_1345,2-25_cond_decay_EYE-try,2021.2.3,119.41984787234422,
right,0.75,1.0,1,2,0,2,0,0,0,0,0,0,8,8,2,,,,,,,,,,,,,,,3s,1548.44466220701,1549.445582143002,1549.4371149569924,None,1550.4376124489936,1551.0285535930016,1550.4376124489936,1551.0285535930016,1551.0285535930016,None,1551.0285535930016,None,space,1551.0285535930016,None,0.589,1551.5458366450039,None,0.39233053199131973,,,,,,,DEC016,001,2022_Oct_28_1345,2-25_cond_decay_EYE-try,2021.2.3,119.41984787234422,
left,0.75,1.0,0,2,0,2,0,0,0,0,0,0,9,9,4,,,,,,,,,,,,,,,3s,1552.6105227789958,1553.6120418079954,1553.603457936988,None,1554.604162239004,1556.3207714800083,1554.604162239004,1556.3207714800083,1556.3117685469915,None,1556.3117685469915,None,space,1556.3117685469915,None,1.7103,1556.7536735709873,None,0.31729426101082936,,,,,,,DEC016,001,2022_Oct_28_1345,2-25_cond_decay_EYE-try,2021.2.3,119.41984787234422,
left,0.75,1.0,0,2,0,2,0,0,0,0,0,1,0,10,5,,,,,,,,,,,,,,,3s,1557.8112138430006,1558.8121014070057,1558.7958310139948,None,1559.7950294940092,1561.037325303012,1559.7950294940092,1561.037325303012,1561.037325303012,None,1561.037325303012,None,space,1561.037325303012,None,1.2385,1561.5106523929862,None,0.3441921579942573,,,,,,,DEC016,001,2022_Oct_28_1345,2-25_cond_decay_EYE-try,2021.2.3,119.41984787234422,
left,0.75,1.0,0,2,0,2,0,0,0,0,0,1,1,11,9,,,,,,,,,,,,,,,3s,1562.5609347400023,1563.5623542329995,1563.554364585987,None,1564.5536611959978,1566.9620381960121,1564.5536611959978,1566.9620381960121,1566.9620381960121,None,1566.9620381960121,None,space,1566.9620381960121,None,2.4087,1567.4357280090044,None,0.3438885340001434,,,,,,,DEC016,001,2022_Oct_28_1345,2-25_cond_decay_EYE-try,2021.2.3,119.41984787234422,
right,1.0,0.75,0,2,0,2,0,0,0,0,0,1,2,12,7,,,,,,,,,,,,,,,3s,1568.4942237150099,1569.4952966900019,1569.4793644190067,None,1570.4792257490044,1571.4620379009866,1570.4792257490044,1571.4620379009866,1571.4620379009866,None,1571.4620379009866,None,space,1571.4620379009866,None,0.9826,1572.028143656993,None,0.43573660601396114,,,,,,,DEC016,001,2022_Oct_28_1345,2-25_cond_decay_EYE-try,2021.2.3,119.41984787234422,
left,1.0,0.75,1,2,0,2,0,0,0,0,0,1,3,13,3,,,,,,,,,,,,,,,3s,1573.085857166996,1574.0871400809847,1574.0789594649978,None,1575.0789552619972,1577.92083941499,1575.0789552619972,1577.92083941499,1577.92083941499,None,1577.92083941499,None,space,1577.92083941499,None,2.8388,1578.371046057,None,0.3252287019859068,,,,,,,DEC016,001,2022_Oct_28_1345,2-25_cond_decay_EYE-try,2021.2.3,119.41984787234422,
right,0.75,1.0,1,2,0,2,0,0,0,0,0,1,4,14,2,,,,,,,,,,,,,,,3s,1579.4288132340007,1580.42915674299,1580.4210108149855,None,1581.4210808750067,1583.6711936240026,1581.4210808750067,1583.6711936240026,1583.662763061002,None,1583.662763061002,None,space,1583.662763061002,None,2.2427,1584.0950463119952,None,0.3026431420003064,,,,,,,DEC016,001,2022_Oct_28_1345,2-25_cond_decay_EYE-try,2021.2.3,119.41984787234422,
left,0.75,1.0,0,2,0,2,0,0,0,0,0,1,5,15,0,,,,,,,,,,,,,,,3s,1585.152644296002,1586.1542637250095,1586.1458307990106,None,1587.1461295289919,1589.4207767279877,1587.1461295289919,1589.4207767279877,1589.4119970159954,None,1589.4119970159954,None,space,1589.4119970159954,None,2.2716,1589.8859891039901,None,0.34514711902011186,,,,,,,DEC016,001,2022_Oct_28_1345,2-25_cond_decay_EYE-try,2021.2.3,119.41984787234422,
left,0.75,1.0,0,2,0,2,0,0,0,0,0,1,6,16,4,,,,,,,,,,,,,,,3s,1590.9440208199958,1591.9460578119906,1591.9378740660031,None,1592.928881402011,1593.504007095995,1592.928881402011,1593.504007095995,1593.504007095995,None,1593.504007095995,None,space,1593.504007095995,None,0.5733,1594.02003954901,None,0.3855088090058416,,,,,,,DEC016,001,2022_Oct_28_1345,2-25_cond_decay_EYE-try,2021.2.3,119.41984787234422,
right,1.0,0.75,0,2,0,2,0,0,0,0,0,1,7,17,8,,,,,,,,,,,,,,,3s,1595.0694589409977,1596.0704870180052,1596.0620281299925,None,1597.0630010970053,1598.5872316150053,1597.0630010970053,1598.5872316150053,1598.5794801120064,None,1598.5794801120064,None,space,1598.5794801120064,None,1.519,1599.0113044739992,None,0.30223620898323134,,,,,,,DEC016,001,2022_Oct_28_1345,2-25_cond_decay_EYE-try,2021.2.3,119.41984787234422,
right,1.0,0.75,0,2,0,2,0,0,0,0,0,1,8,18,1,,,,,,,,,,,,,,,3s,1600.0621976320108,1601.0623370129906,1601.054600709991,None,1602.0541407529963,1603.7796844230033,1602.0541407529963,1603.7796844230033,1603.7796844230033,None,1603.7796844230033,None,space,1603.7796844230033,None,1.7223,1604.261221697001,None,0.3526145030045882,,,,,,,DEC016,001,2022_Oct_28_1345,2-25_cond_decay_EYE-try,2021.2.3,119.41984787234422,
right,1.0,0.75,0,2,0,2,0,0,0,0,0,1,9,19,6,,,,,,,,,,,,,,,3s,1605.3113917750015,1606.3129131369933,1606.3045983090124,None,1607.303870525997,1608.2049791649915,1607.303870525997,1608.2049791649915,1608.2049791649915,None,1608.2049791649915,None,space,1608.2049791649915,None,0.8994,1608.7039865760016,None,0.37454751098994166,,,,,,,DEC016,001,2022_Oct_28_1345,2-25_cond_decay_EYE-try,2021.2.3,119.41984787234422,
,,,,2,0,2,0,0,0,0,0,,,,,,,,,,,,,,,,,,,,,,,,,,,,,,,,,,,,,,,,,,,,,DEC016,001,2022_Oct_28_1345,2-25_cond_decay_EYE-try,2021.2.3,119.41984787234422,
left,0.75,1.0,0,2,0,2,0,1,0,1,0,0,0,0,1,,,,,,,,,1609.6026998060115,None,1609.6026998060115,None,1609.6026998060115,None,10s,1610.7875080459926,1611.7872365509975,1611.7798814009875,None,1612.7797865080065,1621.7209217759955,1612.7797865080065,1621.7209217759955,1621.7130492599972,1622.7127218169917,1621.7130492599972,1622.7127218169917,None,1621.7130492599972,1622.7127218169917,8.9367,1622.8452287440014,None,,,,,,,,DEC016,001,2022_Oct_28_1345,2-25_cond_decay_EYE-try,2021.2.3,119.41984787234422,
left,0.75,1.0,0,2,0,2,0,1,0,1,0,0,1,1,3,,,,,,,,,,,,,,,10s,1623.896173652989,1624.8961165359942,1624.887622952985,None,1625.8877050690062,1626.1292625640053,1625.8877050690062,1626.1292625640053,1626.1292625640053,None,1626.1292625640053,None,space,1626.1292625640053,None,0.24,1626.7281956939842,None,0.46735617800732143,,,,,,,DEC016,001,2022_Oct_28_1345,2-25_cond_decay_EYE-try,2021.2.3,119.41984787234422,
right,0.75,1.0,1,2,0,2,0,1,0,1,0,0,2,2,5,,,,,,,,,,,,,,,10s,1627.7801820019959,1628.7799054539937,1628.7712682670099,None,1629.7716397419863,1638.4292872500082,1629.7716397419863,1638.4292872500082,1638.4292872500082,None,1638.4292872500082,None,space,1638.4292872500082,None,8.6545,1639.0868578290101,None,0.5281154820113443,,,,,,,DEC016,001,2022_Oct_28_1345,2-25_cond_decay_EYE-try,2021.2.3,119.41984787234422,
right,1.0,0.75,0,2,0,2,0,1,0,1,0,0,3,3,0,,,,,,,,,,,,,,,10s,1640.1367623420083,1641.1384952719964,1641.1291968240112,None,1642.1292024219874,1642.6375364289852,1642.1292024219874,1642.6375364289852,1642.6375364289852,None,1642.6375364289852,None,space,1642.6375364289852,None,0.5074,1643.2700723960006,None,0.502980724995723,,,,,,,DEC016,001,2022_Oct_28_1345,2-25_cond_decay_EYE-try,2021.2.3,119.41984787234422,
left,0.75,1.0,0,2,0,2,0,1,0,1,0,0,4,4,2,,,,,,,,,,,,,,,10s,1644.3286141350109,1645.3297357659903,1645.3212191030034,None,1646.321112687001,1648.280076052004,1646.321112687001,1648.280076052004,1648.280076052004,None,1648.280076052004,None,space,1648.280076052004,None,1.9578,1648.812118228001,None,0.40197220200207084,,,,,,,DEC016,001,2022_Oct_28_1345,2-25_cond_decay_EYE-try,2021.2.3,119.41984787234422,
left,0.75,1.0,0,2,0,2,0,1,0,1,0,0,5,5,8,,,,,,,,,,,,,,,10s,1649.8621479359863,1650.8632232979871,1650.8547713150037,None,1651.854364836996,1653.0803283060086,1651.854364836996,1653.0803283060086,1653.0803283060086,None,1653.0803283060086,None,space,1653.0803283060086,None,1.2236,1653.5950428409851,None,0.38539234598283656,,,,,,,DEC016,001,2022_Oct_28_1345,2-25_cond_decay_EYE-try,2021.2.3,119.41984787234422,
right,1.0,0.75,0,2,0,2,0,1,0,1,0,0,6,6,6,,,,,,,,,,,,,,,10s,1654.653959088988,1655.6552624510077,1655.646164331003,None,1656.6460697879957,1661.313229099993,1656.6460697879957,1661.313229099993,1661.3047206460033,None,1661.3047206460033,None,space,1661.3047206460033,None,4.663,1661.8802268700092,None,0.45123980700736865,,,,,,,DEC016,001,2022_Oct_28_1345,2-25_cond_decay_EYE-try,2021.2.3,119.41984787234422,
left,1.0,0.75,1,2,0,2,0,1,0,1,0,0,7,7,4,,,,,,,,,,,,,,,10s,1662.9458591899893,1663.9468550639867,1663.9382417190063,None,1664.9381186490064,1667.3633191889967,1664.9381186490064,1667.3633191889967,1667.354744538985,None,1667.354744538985,None,space,1667.354744538985,None,2.4179,1668.3463597350055,None,0.8671899199835025,,,,,,,DEC016,001,2022_Oct_28_1345,2-25_cond_decay_EYE-try,2021.2.3,119.41984787234422,
left,0.75,1.0,0,2,0,2,0,1,0,1,0,0,8,8,7,,,,,,,,,,,,,,,10s,1669.4040253039857,1670.404940317996,1670.3964582250046,None,1671.3970581699978,1675.1716738110117,1671.3970581699978,1675.1716738110117,1675.1716738110117,None,1675.1716738110117,None,space,1675.1716738110117,None,3.7741,1675.7037286029954,None,0.4003618679998908,,,,,,,DEC016,001,2022_Oct_28_1345,2-25_cond_decay_EYE-try,2021.2.3,119.41984787234422,
right,1.0,0.75,0,2,0,2,0,1,0,1,0,0,9,9,9,,,,,,,,,,,,,,,10s,1676.761849669012,1677.7630810659903,1677.7547908159904,None,1678.7548795600014,1684.8551469490048,1678.7548795600014,1684.8551469490048,1684.8551469490048,None,1684.8551469490048,None,space,1684.8551469490048,None,6.0966,1685.4042605200084,None,0.41877888501039706,,,,,,,DEC016,001,2022_Oct_28_1345,2-25_cond_decay_EYE-try,2021.2.3,119.41984787234422,
left,0.75,1.0,0,2,0,2,0,1,0,1,0,1,0,10,2,,,,,,,,,,,,,,,10s,1686.4534072680108,1687.455002947012,1687.446616058005,None,1688.4469376539928,1693.663510896993,1688.4469376539928,1693.663510896993,1693.663510896993,None,1693.663510896993,None,None,1693.663510896993,None,5.2125,1694.7873824280105,None,,,,,,,,DEC016,001,2022_Oct_28_1345,2-25_cond_decay_EYE-try,2021.2.3,119.41984787234422,
right,1.0,0.75,0,2,0,2,0,1,0,1,0,1,1,11,0,,,,,,,,,,,,,,,10s,1695.8458184810006,1696.8466631050105,1696.830207750987,None,1697.8307332079858,1704.1717199810082,1697.8307332079858,1704.1717199810082,1704.1717199810082,None,1704.1717199810082,None,space,1704.1717199810082,None,6.338,1704.6806447929994,None,0.3780791489989497,,,,,,,DEC016,001,2022_Oct_28_1345,2-25_cond_decay_EYE-try,2021.2.3,119.41984787234422,
left,0.75,1.0,0,2,0,2,0,1,0,1,0,1,2,12,7,,,,,,,,,,,,,,,10s,1705.7297248780087,1706.7303208319936,1706.714144477999,None,1707.7138106159982,1713.5383637679915,1707.7138106159982,1713.5383637679915,1713.5383637679915,None,1713.5383637679915,None,space,1713.5383637679915,None,5.8198,1714.062422916002,None,0.39525541200418957,,,,,,,DEC016,001,2022_Oct_28_1345,2-25_cond_decay_EYE-try,2021.2.3,119.41984787234422,
right,1.0,0.75,0,2,0,2,0,1,0,1,0,1,3,13,6,,,,,,,,,,,,,,,10s,1715.1123917049845,1716.1136003249849,1716.1053099310084,None,1717.105279815005,1723.7385045959963,1717.105279815005,1723.7385045959963,1723.7305821519985,None,1723.7305821519985,None,space,1723.7305821519985,None,6.6297,1724.288022060995,None,0.4335105049831327,,,,,,,DEC016,001,2022_Oct_28_1345,2-25_cond_decay_EYE-try,2021.2.3,119.41984787234422,
left,1.0,0.75,1,2,0,2,0,1,0,1,0,1,4,14,4,,,,,,,,,,,,,,,10s,1725.3541030620108,1726.355651299993,1726.347559301008,None,1727.3472191990004,1733.0893975799845,1727.3472191990004,1733.0893975799845,1733.0805180119933,None,1733.0805180119933,None,space,1733.0805180119933,None,5.7343,1733.854310108989,None,0.6448762329819147,,,,,,,DEC016,001,2022_Oct_28_1345,2-25_cond_decay_EYE-try,2021.2.3,119.41984787234422,
right,0.75,1.0,1,2,0,2,0,1,0,1,0,1,5,15,5,,,,,,,,,,,,,,,10s,1734.9041650359868,1735.9054087559925,1735.8892728190112,None,1736.8974176069896,1743.7810267279856,1736.8974176069896,1743.7810267279856,1743.7720657360042,None,1743.7720657360042,None,space,1743.7720657360042,None,6.8758,1744.279557575006,None,0.376265175989829,,,,,,,DEC016,001,2022_Oct_28_1345,2-25_cond_decay_EYE-try,2021.2.3,119.41984787234422,
left,0.75,1.0,0,2,0,2,0,1,0,1,0,1,6,16,8,,,,,,,,,,,,,,,10s,1745.3381252310064,1746.3393074189953,1746.3226637500047,None,1747.3223994479922,1755.0481443949975,1747.3223994479922,1755.0481443949975,1755.0562725100026,None,1755.0562725100026,None,space,1755.0562725100026,None,7.7261,1755.662922810996,None,0.47695048700552434,,,,,,,DEC016,001,2022_Oct_28_1345,2-25_cond_decay_EYE-try,2021.2.3,119.41984787234422,
right,1.0,0.75,0,2,0,2,0,1,0,1,0,1,7,17,1,,,,,,,,,,,,,,,10s,1756.7208848549926,1757.7220194310066,1757.7146736730065,None,1758.7140166400059,1767.5890394159942,1758.7140166400059,1767.5890394159942,1767.5890394159942,None,1767.5890394159942,None,space,1767.5890394159942,None,8.8741,1768.4728393339901,None,0.7590013979934156,,,,,,,DEC016,001,2022_Oct_28_1345,2-25_cond_decay_EYE-try,2021.2.3,119.41984787234422,
left,0.75,1.0,0,2,0,2,0,1,0,1,0,1,8,18,3,,,,,,,,,,,,,,,10s,1769.5380235209886,1770.5389783179853,1770.530661858007,None,1771.530867102003,1776.6482815569907,1771.530867102003,1776.6482815569907,1776.6391961899935,None,1776.6391961899935,None,space,1776.6391961899935,None,5.1148,1777.2802199230064,None,0.5094174980185926,,,,,,,DEC016,001,2022_Oct_28_1345,2-25_cond_decay_EYE-try,2021.2.3,119.41984787234422,
right,1.0,0.75,0,2,0,2,0,1,0,1,0,1,9,19,9,,,,,,,,,,,,,,,10s,1778.3385640670022,1779.3397383189877,1779.3316167739977,None,1780.3308777979983,1787.7398862970003,1780.3308777979983,1787.7398862970003,1787.7398862970003,None,1787.7398862970003,None,space,1787.7398862970003,None,7.4079,1788.230509488989,None,0.360547290998511,,,,,,,DEC016,001,2022_Oct_28_1345,2-25_cond_decay_EYE-try,2021.2.3,119.41984787234422,
,,,,2,0,2,0,1,0,1,0,,,,,,,,,,,,,,,,,,,,,,,,,,,,,,,,,,,,,,,,,,,,,DEC016,001,2022_Oct_28_1345,2-25_cond_decay_EYE-try,2021.2.3,119.41984787234422,
right,1.0,0.75,0,2,0,2,0,2,0,2,0,0,0,0,6,,,,,,,,,1789.1222640640044,None,1789.1222640640044,None,1789.1222640640044,None,5s,1792.8302734330064,1793.8311611030076,1793.822661616985,None,1794.822688449989,1795.7144415049988,1794.822688449989,1795.7144415049988,1795.7066363589838,None,1795.7066363589838,None,space,1795.7066363589838,None,0.8898,1796.1800855489855,None,0.34334409100119956,,,,,,,DEC016,001,2022_Oct_28_1345,2-25_cond_decay_EYE-try,2021.2.3,119.41984787234422,
left,0.75,1.0,0,2,0,2,0,2,0,2,0,0,1,1,1,,,,,,,,,,,,,,,5s,1797.2297214650025,1798.2313032679958,1798.2228131410084,None,1799.2228307669866,1802.5316377239942,1799.2228307669866,1802.5316377239942,1802.5316377239942,None,1802.5316377239942,None,space,1802.5316377239942,None,3.3027,1802.9629970660026,None,0.3024236130004283,,,,,,,DEC016,001,2022_Oct_28_1345,2-25_cond_decay_EYE-try,2021.2.3,119.41984787234422,
left,1.0,0.75,1,2,0,2,0,2,0,2,0,0,2,2,2,,,,,,,,,,,,,,,5s,1804.0137017790112,1805.014626580989,1805.0064361309924,None,1806.0062303949962,1808.8150000179885,1806.0062303949962,1808.8150000179885,1808.8061517759925,None,1808.8061517759925,None,space,1808.8061517759925,None,2.8074,1809.2719071939937,None,0.3339375279902015,,,,,,,DEC016,001,2022_Oct_28_1345,2-25_cond_decay_EYE-try,2021.2.3,119.41984787234422,
left,0.75,1.0,0,2,0,2,0,2,0,2,0,0,3,3,8,,,,,,,,,,,,,,,5s,1810.3225502980058,1811.3230070160062,1811.314543682005,None,1812.3147431300022,1813.2985384589992,1812.3147431300022,1813.2985384589992,1813.2985384589992,None,1813.2985384589992,None,space,1813.2985384589992,None,0.9813,1813.9056362299889,None,0.48332077500526793,,,,,,,DEC016,001,2022_Oct_28_1345,2-25_cond_decay_EYE-try,2021.2.3,119.41984787234422,
right,1.0,0.75,0,2,0,2,0,2,0,2,0,0,4,4,5,,,,,,,,,,,,,,,5s,1814.9652155319927,1815.9648802329903,1815.9562083839846,None,1816.9565312489867,1820.8644525209966,1816.9565312489867,1820.8644525209966,1820.8644525209966,None,1820.8644525209966,None,space,1820.8644525209966,None,3.9028,1821.3071159450046,None,0.31750190298771486,,,,,,,DEC016,001,2022_Oct_28_1345,2-25_cond_decay_EYE-try,2021.2.3,119.41984787234422,
right,1.0,0.75,0,2,0,2,0,2,0,2,0,0,5,5,9,,,,,,,,,,,,,,,5s,1822.3721895740018,1823.3730531239999,1823.3652923039917,None,1824.3647824799991,1825.881473774003,1824.3647824799991,1825.881473774003,1825.873825163988,None,1825.873825163988,None,space,1825.873825163988,None,1.5139,1826.4818247570074,None,0.4830522040138021,,,,,,,DEC016,001,2022_Oct_28_1345,2-25_cond_decay_EYE-try,2021.2.3,119.41984787234422,
right,0.75,1.0,1,2,0,2,0,2,0,2,0,0,6,6,7,,,,,,,,,,,,,,,5s,1827.5395008850028,1828.5404227149847,1828.5319330400089,None,1829.5313295829983,1832.8065455899923,1829.5313295829983,1832.8065455899923,1832.8065455899923,None,1832.8065455899923,None,space,1832.8065455899923,None,3.2749,1833.2397682550072,None,0.30887394497403875,,,,,,,DEC016,001,2022_Oct_28_1345,2-25_cond_decay_EYE-try,2021.2.3,119.41984787234422,
left,0.75,1.0,0,2,0,2,0,2,0,2,0,0,7,7,0,,,,,,,,,,,,,,,5s,1834.2983521109854,1835.2986859719967,1835.2903354959853,None,1836.2897269649839,1837.7480419620115,1836.2897269649839,1837.7480419620115,1837.7480419620115,None,1837.7480419620115,None,space,1837.7480419620115,None,1.4576,1838.2140078250086,None,0.33621982199838385,,,,,,,DEC016,001,2022_Oct_28_1345,2-25_cond_decay_EYE-try,2021.2.3,119.41984787234422,
right,1.0,0.75,0,2,0,2,0,2,0,2,0,0,8,8,3,,,,,,,,,,,,,,,5s,1839.2719311550027,1840.2732506199973,1840.2646191040112,None,1841.2649832509924,1845.531868023012,1841.2649832509924,1845.531868023012,1845.531868023012,None,1845.531868023012,None,space,1845.531868023012,None,4.2665,1845.9468958080106,None,0.2860303249908611,,,,,,,DEC016,001,2022_Oct_28_1345,2-25_cond_decay_EYE-try,2021.2.3,119.41984787234422,
left,0.75,1.0,0,2,0,2,0,2,0,2,0,0,9,9,4,,,,,,,,,,,,,,,5s,1846.997321981995,1847.9985420579906,1847.9902940639877,None,1848.9898991730006,1853.0153973920096,1848.9898991730006,1853.0153973920096,1853.0072511199978,None,1853.0072511199978,None,space,1853.0072511199978,None,4.0235,1853.5979611290095,None,0.46108915499644354,,,,,,,DEC016,001,2022_Oct_28_1345,2-25_cond_decay_EYE-try,2021.2.3,119.41984787234422,
left,0.75,1.0,0,2,0,2,0,2,0,2,0,1,0,10,1,,,,,,,,,,,,,,,5s,1854.6474972669967,1855.648414419993,1855.6402530389896,None,1856.640092460002,1859.5484209040005,1856.640092460002,1859.5484209040005,1859.5405418209848,None,1859.5405418209848,None,space,1859.5405418209848,None,2.9034,1860.1473528530041,None,0.4773022959998343,,,,,,,DEC016,001,2022_Oct_28_1345,2-25_cond_decay_EYE-try,2021.2.3,119.41984787234422,
left,0.75,1.0,0,2,0,2,0,2,0,2,0,1,1,11,0,,,,,,,,,,,,,,,5s,1861.1985437939875,1862.198885832011,1862.1903005549975,None,1863.1904863929958,1866.148607140989,1863.1904863929958,1866.148607140989,1866.1409196520108,None,1866.1409196520108,None,space,1866.1409196520108,None,2.9535,1866.6486771150085,None,0.38324942300096154,,,,,,,DEC016,001,2022_Oct_28_1345,2-25_cond_decay_EYE-try,2021.2.3,119.41984787234422,
left,0.75,1.0,0,2,0,2,0,2,0,2,0,1,2,12,8,,,,,,,,,,,,,,,5s,1867.7056700759858,1868.7072976010095,1868.6988561839971,None,1869.6982927600038,1871.6156285360048,1869.6982927600038,1871.6156285360048,1871.6067150130111,None,1871.6067150130111,None,space,1871.6067150130111,None,1.911,1872.0991038029897,None,0.36756148299900815,,,,,,,DEC016,001,2022_Oct_28_1345,2-25_cond_decay_EYE-try,2021.2.3,119.41984787234422,
left,0.75,1.0,0,2,0,2,0,2,0,2,0,1,3,13,4,,,,,,,,,,,,,,,5s,1873.1562180439942,1874.157653717004,1874.148999430996,None,1875.1485872949997,1878.4153280839964,1875.1485872949997,1878.4153280839964,1878.40763964699,None,1878.40763964699,None,space,1878.40763964699,None,3.2621,1878.8489868949982,None,0.3164522369916085,,,,,,,DEC016,001,2022_Oct_28_1345,2-25_cond_decay_EYE-try,2021.2.3,119.41984787234422,
right,0.75,1.0,1,2,0,2,0,2,0,2,0,1,4,14,7,,,,,,,,,,,,,,,5s,1879.914702581009,1880.9156212859962,1880.8985677419987,None,1881.898936320009,1886.0904695010104,1881.898936320009,1886.0904695010104,1886.0904695010104,None,1886.0904695010104,None,space,1886.0904695010104,None,4.1848,1886.5307957519835,None,0.31060100501053967,,,,,,,DEC016,001,2022_Oct_28_1345,2-25_cond_decay_EYE-try,2021.2.3,119.41984787234422,
right,1.0,0.75,0,2,0,2,0,2,0,2,0,1,5,15,6,,,,,,,,,,,,,,,5s,1887.5809044920024,1888.5825224569999,1888.5735045050096,None,1889.5745156790072,1891.0152853690088,1889.5745156790072,1891.0152853690088,1891.0076432260103,None,1891.0076432260103,None,space,1891.0076432260103,None,1.4348,1891.8740340349905,None,0.7413988999905996,,,,,,,DEC016,001,2022_Oct_28_1345,2-25_cond_decay_EYE-try,2021.2.3,119.41984787234422,
right,1.0,0.75,0,2,0,2,0,2,0,2,0,1,6,16,9,,,,,,,,,,,,,,,5s,1892.9306815529999,1893.9320903650078,1893.9243459840072,None,1894.9237175440066,1895.4571054489934,1894.9237175440066,1895.4571054489934,1895.4490422329982,None,1895.4490422329982,None,space,1895.4490422329982,None,0.5321,1896.0727373010013,None,0.4928849530115258,,,,,,,DEC016,001,2022_Oct_28_1345,2-25_cond_decay_EYE-try,2021.2.3,119.41984787234422,
right,1.0,0.75,0,2,0,2,0,2,0,2,0,1,7,17,3,,,,,,,,,,,,,,,5s,1897.1312673260109,1898.132350400003,1898.1161977220036,None,1899.1162623919954,1900.6080151239876,1899.1162623919954,1900.6080151239876,1900.6080151239876,None,1900.6080151239876,None,space,1900.6080151239876,None,1.4848,1901.1150096459896,None,0.3767372359870933,,,,,,,DEC016,001,2022_Oct_28_1345,2-25_cond_decay_EYE-try,2021.2.3,119.41984787234422,
left,1.0,0.75,1,2,0,2,0,2,0,2,0,1,8,18,2,,,,,,,,,,,,,,,5s,1902.1725701259857,1903.1742678309965,1903.1657824440044,None,1904.1658125290123,1907.9741591909842,1904.1658125290123,1907.9741591909842,1907.9741591909842,None,1907.9741591909842,None,space,1907.9741591909842,None,3.8074,1908.423474840005,None,0.3255500780069269,,,,,,,DEC016,001,2022_Oct_28_1345,2-25_cond_decay_EYE-try,2021.2.3,119.41984787234422,
right,1.0,0.75,0,2,0,2,0,2,0,2,0,1,9,19,5,,,,,,,,,,,,,,,5s,1909.489252919011,1910.4912016050075,1910.4821363709925,None,1911.4829476859886,1913.7997229289904,1911.4829476859886,1913.7997229289904,1913.7908692059864,None,1913.7908692059864,None,space,1913.7908692059864,None,2.3132,1914.240657087008,None,0.3254196060006507,,,,,,,DEC016,001,2022_Oct_28_1345,2-25_cond_decay_EYE-try,2021.2.3,119.41984787234422,
,,,,2,0,2,0,2,0,2,0,,,,,,,,,,,,,,,,,,,,,,,,,,,,,,,,,,,,,,,,,,,,,DEC016,001,2022_Oct_28_1345,2-25_cond_decay_EYE-try,2021.2.3,119.41984787234422,
left,1.0,0.75,1,2,0,2,0,3,0,3,0,0,0,0,8,,,,,,,,,1915.1399535480014,None,1915.1399535480014,None,1915.1399535480014,None,1s,1916.781077705993,1917.7822456200083,1917.7660111350124,None,1918.7663769749925,1919.0492612129892,1918.7663769749925,1919.0492612129892,1919.0492612129892,None,1919.0492612129892,None,space,1919.0492612129892,None,0.282,1919.614327599993,None,0.4362556650012266,,,,,,,DEC016,001,2022_Oct_28_1345,2-25_cond_decay_EYE-try,2021.2.3,119.41984787234422,
right,0.75,1.0,1,2,0,2,0,3,0,3,0,0,1,1,5,,,,,,,,,,,,,,,1s,1920.6665825360105,1921.6663315460028,1921.6576640770072,None,1922.6580311910075,1923.0747599790047,1922.6580311910075,1923.0747599790047,1923.0747599790047,None,1923.0747599790047,None,space,1923.0747599790047,None,0.4119,1923.4653077090043,None,0.25849529198603705,,,,,,,DEC016,001,2022_Oct_28_1345,2-25_cond_decay_EYE-try,2021.2.3,119.41984787234422,
left,0.75,1.0,0,2,0,2,0,3,0,3,0,0,2,2,0,,,,,,,,,,,,,,,1s,1924.5235446250008,1925.524834115,1925.5164455900085,None,1926.5160603419936,1926.9659825770068,1926.5160603419936,1926.9659825770068,1926.9659825770068,None,1926.9659825770068,None,space,1926.9659825770068,None,0.4478,1927.356937414006,None,0.26112323699635454,,,,,,,DEC016,001,2022_Oct_28_1345,2-25_cond_decay_EYE-try,2021.2.3,119.41984787234422,
right,1.0,0.75,0,2,0,2,0,3,0,3,0,0,3,3,1,,,,,,,,,,,,,,,1s,1928.406047870987,1929.4080163399922,1929.3989559430047,None,1930.3996030359995,1930.6576584310096,1930.3996030359995,1930.6576584310096,1930.6576584310096,None,1930.6576584310096,None,space,1930.6576584310096,None,0.2591,1931.115112013009,None,0.3275767889863346,,,,,,,DEC016,001,2022_Oct_28_1345,2-25_cond_decay_EYE-try,2021.2.3,119.41984787234422,
right,1.0,0.75,0,2,0,2,0,3,0,3,0,0,4,4,6,,,,,,,,,,,,,,,1s,1932.1652558330097,1933.166126414988,1933.1579774580023,None,1934.1576048019924,1934.998946621985,1934.1576048019924,1934.998946621985,1934.998946621985,None,1934.998946621985,None,space,1934.998946621985,None,0.843,1935.4563348600059,None,0.3264725519984495,,,,,,,DEC016,001,2022_Oct_28_1345,2-25_cond_decay_EYE-try,2021.2.3,119.41984787234422,
left,0.75,1.0,0,2,0,2,0,3,0,3,0,0,5,5,9,,,,,,,,,,,,,,,1s,1936.5150988849928,1937.5159305679845,1937.4990954629902,None,1938.4999154240068,1938.8499024809862,1938.4999154240068,1938.8499024809862,1938.8499024809862,None,1938.8499024809862,None,space,1938.8499024809862,None,0.343,1939.2991087640112,None,0.3246570549963508,,,,,,,DEC016,001,2022_Oct_28_1345,2-25_cond_decay_EYE-try,2021.2.3,119.41984787234422,
left,0.75,1.0,0,2,0,2,0,3,0,3,0,0,6,6,2,,,,,,,,,,,,,,,1s,1940.3575364960125,1941.3578724850086,1941.3495133869874,None,1942.3495001920091,1942.965810892987,1942.3495001920091,1942.965810892987,1942.965810892987,None,1942.965810892987,None,space,1942.965810892987,None,0.6128,1943.3819583180011,None,0.2866369149996899,,,,,,,DEC016,001,2022_Oct_28_1345,2-25_cond_decay_EYE-try,2021.2.3,119.41984787234422,
left,0.75,1.0,0,2,0,2,0,3,0,3,0,0,7,7,7,,,,,,,,,,,,,,,1s,1944.431803837011,1945.4323908280057,1945.4248716399889,None,1946.4242541629937,1947.0242133529973,1946.4242541629937,1947.0242133529973,1947.0164115579973,None,1947.0164115579973,None,space,1947.0164115579973,None,0.5962,1947.4148060810112,None,0.2689545080065727,,,,,,,DEC016,001,2022_Oct_28_1345,2-25_cond_decay_EYE-try,2021.2.3,119.41984787234422,
right,1.0,0.75,0,2,0,2,0,3,0,3,0,0,8,8,3,,,,,,,,,,,,,,,1s,1948.4736614050053,1949.4747506270069,1949.4664579000091,None,1950.4662970239879,1950.6746224999952,1950.4662970239879,1950.6746224999952,1950.6746224999952,None,1950.6746224999952,None,space,1950.6746224999952,None,0.2095,1951.2249741159903,None,0.42561409398331307,,,,,,,DEC016,001,2022_Oct_28_1345,2-25_cond_decay_EYE-try,2021.2.3,119.41984787234422,
right,1.0,0.75,0,2,0,2,0,3,0,3,0,0,9,9,4,,,,,,,,,,,,,,,1s,1952.2816699649848,1953.2836572809902,1953.2747512909991,None,1954.2745177960023,1954.7664684689953,1954.2745177960023,1954.7664684689953,1954.7575902520039,None,1954.7575902520039,None,space,1954.7575902520039,None,0.488,1955.1982783910062,None,0.3118631749821361,,,,,,,DEC016,001,2022_Oct_28_1345,2-25_cond_decay_EYE-try,2021.2.3,119.41984787234422,
left,0.75,1.0,0,2,0,2,0,3,0,3,0,1,0,10,7,,,,,,,,,,,,,,,1s,1956.256687282992,1957.2578451939917,1957.2496125010075,None,1958.2496973809903,1958.7245637770102,1958.2496973809903,1958.7245637770102,1958.7245637770102,None,1958.7245637770102,None,space,1958.7245637770102,None,0.4704,1959.3065915580082,None,0.4527202559984289,,,,,,,DEC016,001,2022_Oct_28_1345,2-25_cond_decay_EYE-try,2021.2.3,119.41984787234422,
right,1.0,0.75,0,2,0,2,0,3,0,3,0,1,1,11,6,,,,,,,,,,,,,,,1s,1960.3586390819983,1961.3580425310065,1961.3494853909942,None,1962.349392175005,1962.4997323800053,1962.349392175005,1962.4997323800053,1962.4997323800053,None,1962.4997323800053,None,space,1962.4997323800053,None,0.1504,1963.0746385350067,None,0.4506200150062796,,,,,,,DEC016,001,2022_Oct_28_1345,2-25_cond_decay_EYE-try,2021.2.3,119.41984787234422,
right,1.0,0.75,0,2,0,2,0,3,0,3,0,1,2,12,4,,,,,,,,,,,,,,,1s,1964.1329277830082,1965.1331448639976,1965.1253846400068,None,1966.1246326699911,1966.608725166996,1966.1246326699911,1966.608725166996,1966.608725166996,None,1966.608725166996,None,space,1966.608725166996,None,0.4797,1967.0404044739844,None,0.2999469859933015,,,,,,,DEC016,001,2022_Oct_28_1345,2-25_cond_decay_EYE-try,2021.2.3,119.41984787234422,
left,0.75,1.0,0,2,0,2,0,3,0,3,0,1,3,13,9,,,,,,,,,,,,,,,1s,1968.098107052996,1969.0995748210116,1969.0920630199835,None,1970.0911741869932,1970.4252434369992,1970.0911741869932,1970.4252434369992,1970.4161792119849,None,1970.4161792119849,None,space,1970.4161792119849,None,0.3282,1970.9316517839907,None,0.38589766598306596,,,,,,,DEC016,001,2022_Oct_28_1345,2-25_cond_decay_EYE-try,2021.2.3,119.41984787234422,
right,0.75,1.0,1,2,0,2,0,3,0,3,0,1,4,14,5,,,,,,,,,,,,,,,1s,1971.9903191050107,1972.9916123730072,1972.9830361269997,None,1973.9833365299855,1974.2247100899986,1973.9833365299855,1974.2247100899986,1974.2162564450118,None,1974.2162564450118,None,space,1974.2162564450118,None,0.2391,1974.698345257988,None,0.3528013750037644,,,,,,,DEC016,001,2022_Oct_28_1345,2-25_cond_decay_EYE-try,2021.2.3,119.41984787234422,
left,1.0,0.75,1,2,0,2,0,3,0,3,0,1,5,15,8,,,,,,,,,,,,,,,1s,1975.7565294099913,1976.7582913869992,1976.7415065550013,None,1977.741564972006,1978.0245471519884,1977.741564972006,1978.0245471519884,1978.0245471519884,None,1978.0245471519884,None,space,1978.0245471519884,None,0.278,1978.4837851939956,None,0.33430695298011415,,,,,,,DEC016,001,2022_Oct_28_1345,2-25_cond_decay_EYE-try,2021.2.3,119.41984787234422,
right,1.0,0.75,0,2,0,2,0,3,0,3,0,1,6,16,3,,,,,,,,,,,,,,,1s,1979.5484856920084,1980.5505504930043,1980.5412956239888,None,1981.5414944879885,1981.7998759369948,1981.5414944879885,1981.7998759369948,1981.7917659030063,None,1981.7917659030063,None,space,1981.7917659030063,None,0.2558,1982.3483959609875,None,0.42758336098631844,,,,,,,DEC016,001,2022_Oct_28_1345,2-25_cond_decay_EYE-try,2021.2.3,119.41984787234422,
